FMT, 128, 89, FMT, BBnNZ, Type,Length,Name,Format,Columns
FMT, 129, 23, PARM, Nf, Name,Value
FMT, 130, 45, GPS, BIHBcLLeeEefI, Status,TimeMS,Week,numSV,HDop,Lat,Lng,RelAlt,Alt,Spd,GCrs,VZ,T
FMT, 131, 43, IMU, IffffffIIf, TimeMS,GyrX,GyrY,GyrZ,AccX,AccY,AccZ,ErrG,ErrA,Temp
FMT, 132, 67, MSG, Z, Message
FMT, 133, 35, RCIN, Ihhhhhhhhhhhhhh, TimeMS,C1,C2,C3,C4,C5,C6,C7,C8,C9,C10,C11,C12,C13,C14
FMT, 134, 31, RCOU, Ihhhhhhhhhhhh, TimeMS,Ch1,Ch2,Ch3,Ch4,Ch5,Ch6,Ch7,Ch8,Ch9,Ch10,Ch11,Ch12
FMT, 136, 21, BARO, Iffcf, TimeMS,Alt,Press,Temp,CRt
FMT, 163, 21, BAR2, Iffcf, TimeMS,Alt,Press,Temp,CRt
FMT, 137, 13, POWR, ICCH, TimeMS,Vcc,VServo,Flags
FMT, 145, 41, CMD, IHHHfffffff, TimeMS,CTot,CNum,CId,Prm1,Prm2,Prm3,Prm4,Lat,Lng,Alt
FMT, 146, 16, RAD, IBBBBBHH, TimeMS,RSSI,RemRSSI,TxBuf,Noise,RemNoise,RxErrors,Fixed
FMT, 148, 31, CAM, IHLLeeccC, GPSTime,GPSWeek,Lat,Lng,Alt,RelAlt,Roll,Pitch,Yaw
FMT, 164, 25, ARSP, Iffcff, TimeMS,Airspeed,DiffPress,Temp,RawPress,Offset
FMT, 166, 21, CURR, IhhhHfh, TimeMS,Throttle,Volt,Curr,Vcc,CurrTot,Volt2
FMT, 165, 23, ATT, IccccCCCC, TimeMS,DesRoll,Roll,DesPitch,Pitch,DesYaw,Yaw,ErrRP,ErrYaw
FMT, 167, 26, MAG, IhhhhhhhhhB, TimeMS,MagX,MagY,MagZ,OfsX,OfsY,OfsZ,MOfsX,MOfsY,MOfsZ,Health
FMT, 170, 9, MODE, IMB, TimeMS,Mode,ModeNum
FMT, 144, 46, GPS2, BIHBcLLeEefIBI, Status,TimeMS,Week,NSats,HDop,Lat,Lng,Alt,Spd,GCrs,VZ,T,DSc,DAg
FMT, 135, 43, IMU2, IffffffIIf, TimeMS,GyrX,GyrY,GyrZ,AccX,AccY,AccZ,ErrG,ErrA,Temp
FMT, 149, 43, IMU3, IffffffIIf, TimeMS,GyrX,GyrY,GyrZ,AccX,AccY,AccZ,ErrG,ErrA,Temp
FMT, 138, 25, AHR2, IccCfLL, TimeMS,Roll,Pitch,Yaw,Alt,Lat,Lng
FMT, 139, 25, SIM, IccCfLL, TimeMS,Roll,Pitch,Yaw,Alt,Lat,Lng
FMT, 140, 43, EKF1, IccCffffffccc, TimeMS,Roll,Pitch,Yaw,VN,VE,VD,PN,PE,PD,GX,GY,GZ
FMT, 141, 26, EKF2, Ibbbcchhhhhh, TimeMS,Ratio,AZ1bias,AZ2bias,VWN,VWE,MN,ME,MD,MX,MY,MZ
FMT, 142, 27, EKF3, Icccccchhhc, TimeMS,IVN,IVE,IVD,IPN,IPE,IPD,IMX,IMY,IMZ,IVT
FMT, 143, 27, EKF4, IcccccccbbBBH, TimeMS,SV,SP,SH,SMX,SMY,SMZ,SVT,OFN,EFE,FS,TS,SS
FMT, 150, 30, TERR, IBLLHffHH, TimeMS,Status,Lat,Lng,Spacing,TerrH,CHeight,Pending,Loaded
FMT, 151, 14, UBX1, IBHBBH, TimeMS,Instance,noisePerMS,jamInd,aPower,agcCnt
FMT, 152, 12, UBX2, IBbBbB, TimeMS,Instance,ofsI,magI,ofsQ,magQ
FMT, 153, 20, UBX3, IBfff, TimeMS,Instance,hAcc,vAcc,sAcc
FMT, 171, 38, GRAW, IIHBBddfBbB, TimeMS,WkMS,Week,NSats,sv,cpMes,prMes,doMes,mesQI,cno,lli
FMT, 154, 15, ESC1, Icccc, TimeMS,RPM,Volt,Curr,Temp
FMT, 155, 15, ESC2, Icccc, TimeMS,RPM,Volt,Curr,Temp
FMT, 156, 15, ESC3, Icccc, TimeMS,RPM,Volt,Curr,Temp
FMT, 157, 15, ESC4, Icccc, TimeMS,RPM,Volt,Curr,Temp
FMT, 158, 15, ESC5, Icccc, TimeMS,RPM,Volt,Curr,Temp
FMT, 159, 15, ESC6, Icccc, TimeMS,RPM,Volt,Curr,Temp
FMT, 160, 15, ESC7, Icccc, TimeMS,RPM,Volt,Curr,Temp
FMT, 161, 15, ESC8, Icccc, TimeMS,RPM,Volt,Curr,Temp
FMT, 162, 24, EKF5, IBhhhcccCC, TimeMS,normInnov,FIX,FIY,AFI,HAGL,offset,RI,meaRng,errHAGL
FMT, 168, 26, MAG2, IhhhhhhhhhB, TimeMS,MagX,MagY,MagZ,OfsX,OfsY,OfsZ,MOfsX,MOfsY,MOfsZ,Health
FMT, 169, 26, MAG3, IhhhhhhhhhB, TimeMS,MagX,MagY,MagZ,OfsX,OfsY,OfsZ,MOfsX,MOfsY,MOfsZ,Health
FMT, 172, 23, ACC1, IIfff, TimeMS,TimeUS,AccX,AccY,AccZ
FMT, 173, 23, ACC2, IIfff, TimeMS,TimeUS,AccX,AccY,AccZ
FMT, 174, 23, ACC3, IIfff, TimeMS,TimeUS,AccX,AccY,AccZ
FMT, 175, 23, GYR1, IIfff, TimeMS,TimeUS,GyrX,GyrY,GyrZ
FMT, 176, 23, GYR2, IIfff, TimeMS,TimeUS,GyrX,GyrY,GyrZ
FMT, 177, 23, GYR3, IIfff, TimeMS,TimeUS,GyrX,GyrY,GyrZ
FMT, 1, 55, 1, fffffffffffff, a_bar,ROLL,PITCH,YAW,Z_POS,V_X,V_Y,V_Z,X_POS,Y_POS,G_Z,G_X,G_Y
FMT, 5, 39, 2, fffffffff, T_MS,UZ,T_TH,T_PHI,T_PSI,TAUX,TAUY,S_PHI,S_PSI
FMT, 12, 51, 3, IfffffffIfff, T_MS,E_X,E_Y,E_Z,VOLT,AMP,nav_z,nav_zp,con_alt,ZDES,XDES,YDES
1, 0, -4.916624E-05, 0.0002085998, -0.4910984, 0, 0, 0, 0, 0, 0, 0.0003625608, 0.0001749219, 8.669015E-05
2, 7, 0, 0.04448318, 0.005143826, -60.86466, 0.02240471, -0.002299599, 0, 0
3, 73, 0, 0, 0, 0, 0, 0, 0, 1116, 0, 0, 0
1, 0.006844616, -1.177681E-05, 0.0001770687, -0.4911526, 0, 0, 0, 0, 0, 0, 0.0001310908, 0.0002613102, 0.0003547672
2, 7, 0, 0.06025373, 0.01878499, -60.89152, 0.03563025, 0.002944205, 0, 0
3, 73, 0, 0, 0, 12.41553, 0, 0, 0, 1116, 0, 0, 0
1, 0.006844616, -3.73711E-05, 0.0001777869, -0.4913011, 0, 0, 0, 0, 0, 0, 7.290216E-05, -0.00013405, 0.0002253835
2, 7, 0, 0.05003232, -0.0174508, -60.915, 0.02804574, -0.006001132, 0, 0
3, 74, 0, 0, 0, 12.41553, 0, 0, 0, 1116, 0, 0, 0
1, 0.0247529, -9.216506E-05, 0.0001642842, -0.4914245, 0, 0, 0, 0, 0, 0, 0.0002149768, -0.0007741996, 0.0002062403
2, 7, 0, 0.04607038, -0.07852568, -60.91793, 0.02579596, -0.02186632, 0, 0
3, 74, 0, 0, 0, 12.31521, 0.001639658, 0, 0, 1116, 0, 0, 0
1, 0.0247529, 0.0002953376, 0.0004656607, -0.4915052, 0, 0, 0, 0, 0, 0, -0.0001200798, 0.0001792737, 0.000726908
2, 7, 0, 0.1419716, 0.06750267, -60.95709, 0.08152689, 0.03340662, 0, 0
3, 75, 0, 0, 0, 12.31521, 0.001639658, 0, 0, 1116, 0, 0, 0
1, 0.04504761, 0.0005607277, 0.000768839, -0.4914818, 0, 0, 0, 0, 0, 0, 0.0002788424, -0.0002623367, 0.0005935544
2, 7, 0, 0.1858754, 0.07994404, -60.91949, 0.09876744, 0.05382503, 0, 0
3, 75, 0, 0, 0, 12.454, 0.003774922, 0, 0, 1116, 0, 0, 0
1, 0.04504761, 0.0009114599, 0.0009732488, -0.4914291, 0, 0, 0, 0, 0, 0, -0.0001840183, -0.0001329102, 0.0003439147
2, 7, 0, 0.202698, 0.15343, -60.95322, 0.1009547, 0.09216791, 0, 0
3, 76, 0, 0, 0, 12.454, 0.003774922, 0, 0, 1116, 0, 0, 0
1, 0.06737769, 0.001240833, 0.001323609, -0.491474, 0, 0, 0, 0, 0, 0, -0.0006349897, -0.0002885218, 0.0001041059
2, 7, 0, 0.2465782, 0.2002683, -60.99802, 0.1158151, 0.1237608, 0, 0
3, 76, 0, 0, 0, 12.44541, 0.005419906, 0, 0, 1116, 0, 0, 0
1, 0.06737769, 0.001597392, 0.001600199, -0.4915367, 0, 0, 0, 0, 0, 0, 0.0001884576, -0.0005923337, -7.928508E-05
2, 7, 0, 0.2816931, 0.2401438, -60.93415, 0.1278964, 0.1558051, 0, 0
3, 77, 0, 0, 0, 12.44541, 0.005419906, 0, 0, 1116, 0, 0, 0
1, 0.09604913, 0.002081268, 0.001830324, -0.4915059, 0, 0, 0, 0, 0, 0, 1.407713E-05, -0.0005895024, 0.000524611
2, 7, 0, 0.3714272, 0.327468, -60.94551, 0.1826413, 0.2059044, 0, 0
3, 77, 0, 0, 0, 12.31892, 0.007781495, 0, 0, 1117, 0, 0, 0
1, 0.09604913, 0.002506326, 0.002077191, -0.4914894, 0, 0, 0, 0, 0, 0, 0.0001756059, 0.0001165624, 0.0003465971
2, 7, 0, 0.4016221, 0.4604636, -60.92941, 0.1925778, 0.2611212, 0, 0
3, 78, 0, 0, 0, 12.31892, 0.007781495, 0, 0, 1116, 0, 0, 0
1, 0.1277787, 0.002788606, 0.002309233, -0.4914275, 0, 0, 0, 0, 0, 0, -0.0001295165, 0.0002453976, -0.0001143531
2, 7, 0, 0.4065137, 0.5215809, -60.94828, 0.18457, 0.2923738, 0, 0
3, 78, 0, 0, 0, 12.43185, 0.01052594, 0, 0, 1117, 0, 0, 0
1, 0.1277787, 0.003108364, 0.002553344, -0.491338, 0, 0, 0, 0, 0, 0, -0.0001372196, 0.0008758276, 0.001250222
2, 7, 0, 0.5596196, 0.6295717, -60.93785, 0.2854149, 0.3354933, 0, 0
3, 79, 0, 0, 0, 12.43185, 0.01052594, 0, 0, 1116, 0, 0, 0
1, 0.1616329, 0.003445733, 0.002767, -0.4912829, 0, 0, 0, 0, 0, 0, -0.0002014753, -0.001075441, 0.0005011045
2, 7, 0, 0.5381483, 0.5341967, -60.93661, 0.2588591, 0.3393098, 0, 0
3, 79, 0, 0, 0, 12.4888, 0.01196149, 0, 0, 1116, 0, 0, 0
1, 0.1616329, 0.003775541, 0.002964775, -0.4911978, 0, 0, 0, 0, 0, 0, 0.0004833639, 0.0001339503, 0.001124329
2, 8, 0, 0.6236058, 0.6903134, -60.86647, 0.3120657, 0.3926912, 0, 0
3, 80, 0, 0, 0, 12.4888, 0.01196149, 0, 0, 1116, 0, 0, 0
1, 0.1947686, 0.004080365, 0.003174721, -0.4911099, 0, 0, 0, 0, 0, 0, -3.395949E-05, -0.0001405243, -0.0001806953
2, 8, 0, 0.5569941, 0.7232237, -60.90058, 0.2523589, 0.4198516, 0, 0
3, 80, 0, 0, 0, 12.39785, 0.0139816, 0, 0, 1116, 0, 0, 0
1, 0.1947686, 0.004398307, 0.003443674, -0.491045, 0, 0, 0, 0, 0, 0, -0.0005853937, -0.0004067653, 9.045972E-05
2, 8, 0, 0.627098, 0.7591541, -60.94051, 0.2906627, 0.4484999, 0, 0
3, 81, 0, 0, 0, 12.39785, 0.0139816, 0, 0, 1116, 0, 0, 0
1, 0.2209405, 0.00479386, 0.003686524, -0.4910555, 0, 0, 0, 0, 0, 0, -0.000499115, -0.0001705141, -4.894997E-06
2, 8, 0, 0.6631827, 0.8492536, -60.9343, 0.3051499, 0.4931812, 0, 0
3, 81, 0, 0, 0, 12.44721, 0.01537869, 0, 0, 1116, 0, 0, 0
1, 0.2209405, 0.005155261, 0.003937071, -0.4909886, 0, 0, 0, 0, 0, 0, 0.0001983182, 0.0002866866, 0.0005763501
2, 8, 0, 0.7547808, 0.9508819, -60.86533, 0.3602492, 0.5378492, 0, 0
3, 82, 0, 0, 0, 12.44721, 0.01537869, 0, 0, 1116, 0, 0, 0
1, 0.2371169, 0.005415805, 0.004158503, -0.4909057, 0, 0, 0, 0, 0, 0, 0.0005173571, 0.000267035, 0.0008275693
2, 8, 0, 0.8147361, 0.9962076, -60.82729, 0.393438, 0.5644881, 0, 0
3, 82, 0, 0, 0, 12.42552, 0.01879334, 0, 0, 1117, 0, 0, 0
1, 0.2371169, 0.005739641, 0.004392597, -0.490781, 0, 0, 0, 0, 0, 0, 0.000276912, -0.0001029253, 0.0005447165
2, 8, 0, 0.8342447, 1.024901, -60.83276, 0.3961225, 0.5920942, 0, 0
3, 83, 0, 0, 0, 12.42552, 0.01879334, 0, 0, 1116, 0, 0, 0
1, 0.2422814, 0.005980117, 0.004654246, -0.4907467, 0, 0, 0, 0, 0, 0, -0.0006603088, 0.001175174, 0.0006206594
2, 8, 0, 0.8874171, 1.170435, -60.91004, 0.4222877, 0.6373299, 0, 0
3, 83, 0, 0, 0, 12.41575, 0.02077743, 0, 0, 1116, 0, 0, 0
1, 0.2422814, 0.006344587, 0.004837909, -0.4906535, 0, 0, 0, 0, 0, 0, -4.468659E-05, -0.0006437619, 0.0003082213
2, 8, 0, 0.8954813, 1.090525, -60.84492, 0.4190461, 0.6460578, 0, 0
3, 84, 0, 0, 0, 12.41575, 0.02077743, 0, 0, 1116, 0, 0, 0
1, 0.2374679, 0.006616478, 0.005033058, -0.4905591, 0, 0, 0, 0, 0, 0, 5.235372E-05, 0.0003487685, 0.000979586
2, 8, 0, 0.9843172, 1.218868, -60.82478, 0.4748803, 0.6899945, 0, 0
3, 84, 0, 0, 0, 12.38754, 0.02229739, 0, 0, 1116, 0, 0, 0
1, 0.2374679, 0.006907037, 0.0052666, -0.490332, 0, 0, 0, 0, 0, 0, 8.703407E-05, -0.0008490139, 0.0002791036
2, 8, 0, 0.9703163, 1.175346, -60.7936, 0.4528449, 0.7009712, 0, 0
3, 85, 0, 0, 0, 12.38754, 0.02229739, 0, 0, 1116, 0, 0, 0
1, 0.2242785, 0.007052832, 0.005539476, -0.490197, 0, 0, 0, 0, 0, 0, 0.000717648, 0.0009381259, 0.0004803455
2, 8, 0, 1.035533, 1.34456, -60.722, 0.4873441, 0.7445211, 0, 0
3, 85, 0, 0, 0, 12.43935, 0.02366826, 0, 0, 1116, 0, 0, 0
1, 0.2242785, 0.007227695, 0.00578813, -0.4901722, 0, 0, 0, 0, 0, 0, 0.0004182021, 0.0002315848, 0.0003366166
2, 8, 0, 1.068793, 1.319512, -60.74496, 0.4994544, 0.7513548, 0, 0
3, 86, 0, 0, 0, 12.43935, 0.02366826, 0, 0, 1116, 0, 0, 0
1, 0.204424, 0.007516186, 0.005991629, -0.4901205, 0, 0, 0, 0, 0, 0, -2.858128E-05, -0.0002333695, -0.0005420868
2, 8, 0, 1.035126, 1.334244, -60.77743, 0.4643997, 0.7737915, 0, 0
3, 86, 0, 0, 0, 12.38573, 0.02506176, 0, 0, 1117, 0, 0, 0
1, 0.204424, 0.007748811, 0.006258813, -0.4900056, 0, 0, 0, 0, 0, 0, 0.0005707343, -0.001180467, 0.0006158708
2, 8, 0, 1.175856, 1.300349, -60.71105, 0.5549517, 0.7827681, 0, 0
3, 87, 0, 0, 0, 12.38573, 0.02506176, 0, 0, 1116, 0, 0, 0
1, 0.1957918, 0.008087385, 0.006478756, -0.4899021, 0, 0, 0, 0, 0, 0, 0.0004223431, 0.0004169368, -0.0003104034
2, 8, 0, 1.141344, 1.489084, -60.71112, 0.5184491, 0.8432388, 0, 0
3, 87, 0, 0, 0, 12.43004, 0.0272613, 0, 0, 1116, 0, 0, 0
1, 0.1957918, 0.008370701, 0.0066739, -0.489763, 0, 0, 0, 0, 0, 0, 0.0003100036, 0.0008326418, 0.0002798567
2, 8, 0, 1.223691, 1.573338, -60.70364, 0.5694922, 0.879169, 0, 0
3, 88, 0, 0, 0, 12.43004, 0.0272613, 0, 0, 1117, 0, 0, 0
1, 0.2093424, 0.008650817, 0.006869838, -0.4896772, 0, 0, 0, 0, 0, 0, -9.035522E-05, -0.0003322975, -1.056538E-05
2, 8, 0, 1.235726, 1.530563, -60.72783, 0.5685678, 0.8895889, 0, 0
3, 88, 0, 0, 0, 12.42145, 0.02848074, 0, 0, 1116, 0, 0, 0
1, 0.2093424, 0.008883142, 0.007094769, -0.4895428, 0, 0, 0, 0, 0, 0, 0.0004025477, 5.972534E-05, 0.0004382766
2, 8, 0, 1.312121, 1.603744, -60.66828, 0.6137237, 0.9198667, 0, 0
3, 89, 0, 0, 0, 12.42145, 0.02848074, 0, 0, 1116, 0, 0, 0
1, 0.2269461, 0.009050559, 0.007318462, -0.4894066, 0, 0, 0, 0, 0, 0, 0.000500872, 0.001471407, 0.001261431
2, 8, 0, 1.418238, 1.746813, -60.64285, 0.6808931, 0.9596729, 0, 0
3, 89, 0, 0, 0, 12.41195, 0.03139215, 0, 0, 1116, 0, 0, 0
1, 0.2269461, 0.009347671, 0.007472262, -0.4892681, 0, 0, 0, 0, 0, 0, 0.0001185134, 0.000511299, 0.001053113
2, 9, 0, 1.429256, 1.723485, -60.65893, 0.6813283, 0.9751143, 0, 0
3, 90, 0, 0, 0, 12.41195, 0.03139215, 0, 0, 1116, 0, 0, 0
1, 0.2404334, 0.009611974, 0.00767777, -0.4891731, 0, 0, 0, 0, 0, 0, -0.0001113095, -0.0006286249, 0.0004342664
2, 9, 0, 1.41674, 1.679865, -60.66716, 0.6617926, 0.9842966, 0, 0
3, 90, 0, 0, 0, 12.43691, 0.03283809, 0, 0, 1116, 0, 0, 0
1, 0.2404334, 0.009865937, 0.007857052, -0.4891029, 0, 0, 0, 0, 0, 0, 0.0006505568, 0.0002416947, 0.0003480199
2, 9, 0, 1.442111, 1.795204, -60.59216, 0.6715518, 1.024433, 0, 0
3, 91, 0, 0, 0, 12.43691, 0.03283809, 0, 0, 1116, 0, 0, 0
1, 0.2495338, 0.0101129, 0.008018553, -0.4889144, 0, 0, 0, 0, 0, 0, 0.0006501455, -0.0008792555, 0.0003860212
2, 9, 0, 1.474221, 1.749982, -60.56882, 0.6871784, 1.032124, 0, 0
3, 91, 0, 0, 0, 12.35499, 0.03474205, 0, 0, 1116, 0, 0, 0
1, 0.2495338, 0.01035042, 0.008224817, -0.4888145, 0, 0, 0, 0, 0, 0, 0.0002785978, -0.0004561299, 0.0008362483
2, 9, 0, 1.547367, 1.826586, -60.58876, 0.7308704, 1.063435, 0, 0
3, 92, 0, 0, 0, 12.35499, 0.03474205, 0, 0, 1116, 0, 0, 0
1, 0.2484465, 0.01064278, 0.00840642, -0.4886667, 0, 0, 0, 0, 0, 0, -5.668649E-05, 7.124024E-05, 0.0004545783
2, 9, 0, 1.549522, 1.9214, -60.5996, 0.7233673, 1.10208, 0, 0
3, 92, 0, 0, 0, 12.46801, 0.03630302, 0, 0, 1116, 0, 0, 0
1, 0.2484465, 0.01089859, 0.008584542, -0.4884967, 0, 0, 0, 0, 0, 0, 0.0003599305, 0.0002246114, 0.0008136905
2, 9, 0, 1.610313, 1.979715, -60.54228, 0.7593442, 1.130986, 0, 0
3, 93, 0, 0, 0, 12.46801, 0.03630302, 0, 0, 1116, 0, 0, 0
1, 0.2418035, 0.0111636, 0.008734996, -0.4884077, 0, 0, 0, 0, 0, 0, -0.000513882, 0.0009125284, 0.0005946335
2, 9, 0, 1.61987, 2.08245, -60.60726, 0.7588676, 1.169361, 0, 0
3, 93, 0, 0, 0, 12.38727, 0.03756055, 0, 0, 1116, 0, 0, 0
1, 0.2418035, 0.01143004, 0.008872698, -0.488326, 0, 0, 0, 0, 0, 0, 0.0006471522, 5.89074E-05, 0.0007411175
2, 9, 0, 1.656375, 2.06212, -60.49612, 0.7789326, 1.183326, 0, 0
3, 94, 0, 0, 0, 12.38727, 0.03756055, 0, 0, 1116, 0, 0, 0
1, 0.2415038, 0.01172781, 0.009035684, -0.4881892, 0, 0, 0, 0, 0, 0, 0.0002363579, 0.0003971125, 8.547884E-05
2, 9, 0, 1.633261, 2.142774, -60.5149, 0.7536994, 1.219517, 0, 0
3, 94, 0, 0, 0, 12.46439, 0.04089914, 0, 0, 1116, 0, 0, 0
1, 0.2415038, 0.01201496, 0.009210474, -0.4880669, 0, 0, 0, 0, 0, 0, -4.80461E-05, 0.0002409945, 0.0004489356
2, 9, 0, 1.6938, 2.181973, -60.52447, 0.7896571, 1.246737, 0, 0
3, 95, 0, 0, 0, 12.46439, 0.04089914, 0, 0, 1116, 0, 0, 0
1, 0.2496131, 0.01223439, 0.009394632, -0.487942, 0, 0, 0, 0, 0, 0, 0.00106708, -4.900057E-05, 0.0002979006
2, 9, 0, 1.714866, 2.19827, -60.41197, 0.7959925, 1.264817, 0, 0
3, 95, 0, 0, 0, 12.41557, 0.04204025, 0, 0, 1116, 0, 0, 0
1, 0.2496131, 0.01247165, 0.009568297, -0.4877219, 0, 0, 0, 0, 0, 0, 0.0001632687, -0.0001077075, 0.0005485467
2, 9, 0, 1.766177, 2.236281, -60.46331, 0.825192, 1.288426, 0, 0
3, 96, 0, 0, 0, 12.41557, 0.04204025, 0, 0, 1116, 0, 0, 0
1, 0.2548826, 0.01267055, 0.009716989, -0.4874528, 0, 0, 0, 0, 0, 0, 0.0001147483, 0.0008142714, -1.096398E-05
2, 9, 0, 1.748181, 2.345841, -60.43416, 0.8044537, 1.32369, 0, 0
3, 96, 0, 0, 0, 12.36042, 0.04428696, 0, 0, 1117, 0, 0, 0
1, 0.2548826, 0.01288726, 0.009884478, -0.4873316, 0, 0, 0, 0, 0, 0, 0.0003043988, 0.0003640341, 0.0005582024
2, 9, 0, 1.823862, 2.34883, -60.40264, 0.8519614, 1.338936, 0, 0
3, 97, 0, 0, 0, 12.36042, 0.04428696, 0, 0, 1116, 0, 0, 0
1, 0.2489402, 0.0131, 0.01006463, -0.4872213, 0, 0, 0, 0, 0, 0, 0.0004231606, 0.0008261054, 0.0001266109
2, 9, 0, 1.821762, 2.424088, -60.37862, 0.8413883, 1.368305, 0, 0
3, 97, 0, 0, 0, 12.34866, 0.0458095, 0, 0, 1116, 0, 0, 0
1, 0.2489402, 0.01333017, 0.01025044, -0.4871302, 0, 0, 0, 0, 0, 0, 0.0004331813, -0.0002121551, 0.001069023
2, 9, 0, 1.9306, 2.382458, -60.36646, 0.9124676, 1.375576, 0, 0
3, 98, 0, 0, 0, 12.34866, 0.0458095, 0, 0, 1116, 0, 0, 0
1, 0.2398284, 0.01355028, 0.01034986, -0.4870531, 0, 0, 0, 0, 0, 0, 0.0007321114, 0.0002496209, 0.0001646888
2, 9, 0, 1.87615, 2.459021, -60.33089, 0.8672727, 1.405704, 0, 0
3, 98, 0, 0, 0, 12.44993, 0.0486355, 0, 0, 1116, 0, 0, 0
1, 0.2398284, 0.01366964, 0.01056521, -0.4868878, 0, 0, 0, 0, 0, 0, 0.0005462719, -0.0002838316, 2.90052E-06
2, 9, 0, 1.90197, 2.437829, -60.32656, 0.875557, 1.409552, 0, 0
3, 99, 0, 0, 0, 12.44993, 0.0486355, 0, 0, 1117, 0, 0, 0
1, 0.2398121, 0.01379167, 0.01069234, -0.4866892, 0, 0, 0, 0, 0, 0, 0.0007220012, -8.960978E-05, 9.322284E-05
2, 9, 0, 1.932079, 2.475332, -60.28664, 0.8914279, 1.42527, 0, 0
3, 99, 0, 0, 0, 12.44911, 0.05023912, 0, 0, 1116, 0, 0, 0
1, 0.2398121, 0.01397728, 0.01084421, -0.4865389, 0, 0, 0, 0, 0, 0, 0.0008213138, 0.0004530419, 0.0003193636
2, 10, 0, 1.977507, 2.552153, -60.25937, 0.9173746, 1.453116, 0, 0
3, 100, 0, 0, 0, 12.44911, 0.05023912, 0, 0, 1116, 0, 0, 0
1, 0.2460184, 0.01418546, 0.01105956, -0.4863607, 0, 0, 0, 0, 0, 0, 0.0005289498, -0.0001954688, 0.0006499926
2, 10, 0, 2.04272, 2.537745, -60.2627, 0.9547543, 1.464321, 0, 0
3, 100, 0, 0, 0, 12.39297, 0.05159024, 0, 0, 1116, 0, 0, 0
1, 0.2460184, 0.01445649, 0.01124843, -0.4862469, 0, 0, 0, 0, 0, 0, 0.0008789041, 0.000201162, 0.0007784193
2, 10, 0, 2.086992, 2.618261, -60.21815, 0.9779938, 1.498678, 0, 0
3, 101, 0, 0, 0, 12.39297, 0.05159024, 0, 0, 1116, 0, 0, 0
1, 0.2517741, 0.01460416, 0.01152907, -0.4861086, 0, 0, 0, 0, 0, 0, 1.993772E-05, 2.667497E-05, 0.0003316652
2, 10, 0, 2.101766, 2.630882, -60.27573, 0.9748507, 1.511173, 0, 0
3, 101, 0, 0, 0, 12.42796, 0.05326291, 0, 0, 1117, 0, 0, 0
1, 0.2517741, 0.01480814, 0.01160829, -0.4859378, 0, 0, 0, 0, 0, 0, 0.001670387, -0.0009267178, 0.0006227084
2, 10, 0, 2.139309, 2.591327, -60.11097, 0.9986117, 1.517087, 0, 0
3, 102, 0, 0, 0, 12.42796, 0.05326291, 0, 0, 1116, 0, 0, 0
1, 0.2582422, 0.01498898, 0.01181011, -0.4857405, 0, 0, 0, 0, 0, 0, 0.0002555668, -0.0001962121, 0.0008677882
2, 10, 0, 2.195242, 2.68232, -60.20959, 1.029817, 1.547433, 0, 0
3, 102, 0, 0, 0, 12.44812, 0.05440291, 0, 0, 1116, 0, 0, 0
1, 0.2582422, 0.01532065, 0.0119505, -0.4855551, 0, 0, 0, 0, 0, 0, 0.001313049, 0.0002343178, 0.0002760601
2, 10, 0, 2.173175, 2.776463, -60.0946, 1.006487, 1.588605, 0, 0
3, 103, 0, 0, 0, 12.44812, 0.05440291, 0, 0, 1116, 0, 0, 0
1, 0.2653649, 0.01553747, 0.0121292, -0.4853912, 0, 0, 0, 0, 0, 0, 0.0007554748, 1.608945E-05, 0.0004065362
2, 10, 0, 2.215779, 2.798031, -60.12278, 1.029004, 1.607558, 0, 0
3, 103, 0, 0, 0, 12.41376, 0.05740792, 0, 0, 1116, 0, 0, 0
1, 0.2653649, 0.01575566, 0.01225762, -0.4852782, 0, 0, 0, 0, 0, 0, 0.0001221316, 0.0001645146, 0.0007500311
2, 10, 0, 2.266373, 2.84918, -60.16388, 1.059942, 1.632496, 0, 0
3, 104, 0, 0, 0, 12.41376, 0.05740792, 0, 0, 1116, 0, 0, 0
1, 0.2670105, 0.01586882, 0.01243212, -0.485189, 0, 0, 0, 0, 0, 0, 0.0002450148, -0.0003530866, 5.679463E-06
2, 10, 0, 2.238236, 2.828141, -60.14212, 1.030419, 1.635956, 0, 0
3, 104, 0, 0, 0, 12.36123, 0.05885436, 0, 0, 1116, 0, 0, 0
1, 0.2670105, 0.01609492, 0.01258944, -0.4850428, 0, 0, 0, 0, 0, 0, 0.001729109, 0.0007128174, 0.0005394896
2, 10, 0, 2.309258, 2.954111, -59.99488, 1.074998, 1.676328, 0, 0
3, 105, 0, 0, 0, 12.36123, 0.05885436, 0, 0, 1116, 0, 0, 0
1, 0.2655363, 0.01627459, 0.01276199, -0.4849671, 0, 0, 0, 0, 0, 0, 0.0005692815, 0.0004669727, 0.0007365433
2, 10, 0, 2.356081, 2.966784, -60.08639, 1.10094, 1.690998, 0, 0
3, 105, 0, 0, 0, 12.44721, 0.06037581, 0, 0, 1116, 0, 0, 0
1, 0.2655363, 0.01645351, 0.01292536, -0.4847704, 0, 0, 0, 0, 0, 0, -0.0001382556, 0.0001212072, 0.000849964
2, 10, 0, 2.394562, 2.971329, -60.12356, 1.121181, 1.704, 0, 0
3, 106, 0, 0, 0, 12.44721, 0.06037581, 0, 0, 1116, 0, 0, 0
1, 0.2727731, 0.01664781, 0.01313602, -0.4846819, 0, 0, 0, 0, 0, 0, -0.0005262233, 0.0002834713, 0.0009268689
2, 10, 0, 2.438633, 3.019283, -60.14634, 1.143181, 1.726685, 0, 0
3, 106, 0, 0, 0, 12.35391, 0.06159334, 0, 0, 1116, 0, 0, 0
1, 0.2727731, 0.01675323, 0.01326101, -0.4845777, 0.3890242, 0, 0, -0.007105194, 0, 0, 0.001000984, -7.493189E-05, 0.0002418968
2, 10, 0, 2.406333, 3.009587, -60.00055, 1.113064, 1.731881, 0, 0
3, 107, 0, 0, 0, 12.35391, 0.06159334, 0.3890242, -0.007105194, 1116, 0, 0, 0
1, 0.2864509, 0.01695604, 0.01336527, -0.4843923, 0.3876867, 0, 0, -0.03734516, 0, 0, 0.0005152848, 0.0001288175, 0.0004204951
2, 10, 0, 2.439389, 3.062392, -60.01981, 1.132257, 1.756109, 0, 0
3, 107, 0, 0, 0, 12.42552, 0.06308004, 0.3876867, -0.03734516, 1116, 0, 0, 0
1, 0.2864509, 0.01714153, 0.01350835, -0.4842781, 0.3079128, 0, 0, -0.06972741, 0, 0, 0.0007305989, 0.0006200306, 0.0003670623
2, 10, 0, 2.460869, 3.135077, -59.98693, 1.140957, 1.783124, 0, 0
3, 108, 0, 0, 0, 12.42552, 0.06308004, 0.3079128, -0.06972741, 1116, 0, 0, 0
1, 0.2921743, 0.0174234, 0.01363475, -0.484047, 0.3028433, 0, 0, -0.09894457, 0, 0, 0.001842846, 0.0004787531, 0.0004937995
2, 10, 0, 2.493758, 3.174512, -59.8615, 1.15892, 1.810035, 0, 0
3, 108, 0, 0, 0, 12.41006, 0.06471737, 0.3028433, -0.09894457, 1116, 0, 0, 0
1, 0.2921743, 0.01752911, 0.01379264, -0.4838221, 0.2830022, 0, 0, -0.1276818, 0, 0, 0.0007542419, 0.000670947, 0.0006619708
2, 10, 0, 2.535634, 3.208916, -59.92832, 1.181942, 1.824033, 0, 0
3, 109, 0, 0, 0, 12.41006, 0.06471737, 0.2830022, -0.1276818, 1116, 0, 0, 0
1, 0.2879457, 0.01768944, 0.01388303, -0.4836337, 0.2743529, 0, 0, -0.1589344, 0, 0, 0.0004812059, 0.0003928901, -0.0003993268
2, 10, 0, 2.467, 3.215531, -59.92871, 1.126719, 1.836191, 0, 0
3, 109, 0, 0, 0, 12.43004, 0.06577886, 0.2743529, -0.1589344, 1116, 0, 0, 0
1, 0.2879457, 0.01774479, 0.01401243, -0.4834828, 0.2580592, 0, 0, -0.1879452, 0, 0, 0.000826463, 0.0004746903, 0.0001094209
2, 11, 0, 2.530991, 3.232037, -59.87996, 1.167504, 1.843218, 0, 0
3, 110, 0, 0, 0, 12.43004, 0.06577886, 0.2580592, -0.1879452, 1116, 0, 0, 0
1, 0.2809761, 0.01788646, 0.01409028, -0.483279, 0.2458741, 0, 0, -0.2183958, 0, 0, -0.0006358317, 0.000425941, 0.0005584661
2, 11, 0, 2.580928, 3.253638, -59.98191, 1.20049, 1.857099, 0, 0
3, 110, 0, 0, 0, 12.41286, 0.06856938, 0.2458741, -0.2183958, 1116, 0, 0, 0
1, 0.2809761, 0.01820424, 0.01420751, -0.4830086, 0.2421883, 0, 0, -0.2328587, 0, 0, 0.001290921, 0.0007895998, 0.0005029863
2, 11, 0, 2.597591, 3.339931, -59.78076, 1.206927, 1.895771, 0, 0
3, 111, 0, 0, 0, 12.41286, 0.06856938, 0.2421883, -0.2328587, 1117, 0, 0, 0
1, 0.2723257, 0.01839148, 0.01430008, -0.4828309, 0.227269, 0, 0, -0.2636523, 0, 0, 9.788702E-05, -0.0001607966, 0.0001993398
2, 11, 0, 2.589962, 3.297603, -59.86252, 1.196655, 1.900002, 0, 0
3, 111, 0, 0, 0, 12.40924, 0.06971069, 0.227269, -0.2636523, 1116, 0, 0, 0
1, 0.2723257, 0.01857491, 0.01438644, -0.4827111, 0.2054245, 0, 0, -0.29747, 0, 0, 0.0005442306, 0.0003516305, 0.0004826143
2, 11, 0, 2.628169, 3.371614, -59.80883, 1.220551, 1.927143, 0, 0
3, 112, 0, 0, 0, 12.40924, 0.06971069, 0.2054245, -0.29747, 1116, 0, 0, 0
1, 0.2706808, 0.01876996, 0.01455989, -0.4824958, 0.1865038, 0, 0, -0.327432, 0, 0, 0.001085579, -0.0004286695, -8.628177E-05
2, 11, 0, 2.613878, 3.3443, -59.73503, 1.201307, 1.934891, 0, 0
3, 112, 0, 0, 0, 12.41195, 0.0715856, 0.1865038, -0.327432, 1116, 0, 0, 0
1, 0.2706808, 0.01896596, 0.01474812, -0.4823176, 0.2424901, 0, 0, -0.2486156, 0, 0, 0.0005363408, -0.000596521, 2.495125E-05
2, 11, 0, 2.656658, 3.366151, -59.76072, 1.223479, 1.952493, 0, 0
3, 113, 0, 0, 0, 12.41195, 0.0715856, 0.2424901, -0.2486156, 1117, 0, 0, 0
1, 0.2813893, 0.01908176, 0.01487488, -0.4821062, 0.2266704, 0, 0, -0.2773653, 0, 0, -0.0001076693, -0.0001781756, 0.0009070017
2, 11, 0, 2.750039, 3.420463, -59.79054, 1.286106, 1.971138, 0, 0
3, 113, 0, 0, 0, 12.43447, 0.07293429, 0.2266704, -0.2773653, 1116, 0, 0, 0
1, 0.2813893, 0.01919414, 0.01502333, -0.481935, 0.2050299, 0, 0, -0.3128092, 0, 0, 0.0002404642, 0.0001357503, 0.000907466
2, 11, 0, 2.776797, 3.465805, -59.73902, 1.298436, 1.987765, 0, 0
3, 114, 0, 0, 0, 12.43447, 0.07293429, 0.2050299, -0.3128092, 1116, 0, 0, 0
1, 0.2872228, 0.01929917, 0.01514791, -0.4817998, 0.1853335, 0, 0, -0.3439736, 0, 0, 0.0006822012, -0.0008937395, 0.0003863884
2, 11, 0, 2.757534, 3.402351, -59.68382, 1.277967, 1.982227, 0, 0
3, 114, 0, 0, 0, 12.44179, 0.07514281, 0.1853335, -0.3439736, 1116, 0, 0, 0
1, 0.2872228, 0.01948919, 0.0152305, -0.4816005, 0.1873647, 0, 0, -0.3420973, 0, 0, 0.0009784038, -0.0007030225, 0.001070932
2, 11, 0, 2.827164, 3.451813, -59.63334, 1.325264, 2.004926, 0, 0
3, 115, 0, 0, 0, 12.44179, 0.07514281, 0.1873647, -0.3420973, 1116, 0, 0, 0
1, 0.2832264, 0.01960563, 0.01538158, -0.4814797, 0.1659252, 0, 0, -0.3721837, 0, 0, 0.001226544, -0.0003290319, -9.095878E-05
2, 11, 0, 2.761408, 3.502691, -59.59678, 1.269124, 2.02293, 0, 0
3, 115, 0, 0, 0, 12.48166, 0.07695622, 0.1659252, -0.3721837, 1116, 0, 0, 0
1, 0.2832264, 0.01975959, 0.01552212, -0.4812849, 0.1712738, 0, 0, -0.3654855, 0, 0, -0.0001002668, 0.00102773, 0.0009905202
2, 11, 0, 2.873223, 3.638945, -59.68805, 1.34468, 2.060476, 0, 0
3, 116, 0, 0, 0, 12.48166, 0.07695622, 0.1712738, -0.3654855, 1116, 0, 0, 0
1, 0.2881031, 0.01989658, 0.01557889, -0.4810221, 0.1484748, 0, 0, -0.3952073, 0, 0, 0.0008408188, 0.0005136111, 0.0001720132
2, 11, 0, 2.817961, 3.622473, -59.57359, 1.301016, 2.066458, 0, 0
3, 116, 0, 0, 0, 12.44993, 0.07820578, 0.1484748, -0.3952073, 1116, 0, 0, 0
1, 0.2881031, 0.01997195, 0.01574774, -0.4809454, 0.2141928, 0, 0, -0.3156103, 0, 0, -0.0001872083, 0.0001074207, -0.0001806569
2, 11, 0, 2.820141, 3.603545, -59.65352, 1.294168, 2.067781, 0, 0
3, 117, 0, 0, 0, 12.44993, 0.07820578, 0.2141928, -0.3156103, 1116, 0, 0, 0
1, 0.309788, 0.02011777, 0.01587906, -0.4807156, 0.1943098, 0, 0, -0.346374, 0, 0, 0.0007183641, 0.000212619, 0.001300548
2, 11, 0, 2.962274, 3.638209, -59.54624, 1.392582, 2.084543, 0, 0
3, 117, 0, 0, 0, 12.35138, 0.08032632, 0.1943098, -0.346374, 1117, 0, 0, 0
1, 0.309788, 0.02023972, 0.01598743, -0.4806307, 0.2100014, 0, 0, -0.3305221, 0, 0, 0.0004586719, -0.000402035, -6.74317E-05
2, 11, 0, 2.872344, 3.610987, -59.5583, 1.320723, 2.087366, 0, 0
3, 118, 0, 0, 0, 12.35138, 0.08032632, 0.2100014, -0.3305221, 1117, 0, 0, 0
1, 0.3272603, 0.02024438, 0.01615477, -0.4804337, 0.1893095, 0, 0, -0.3593519, 0, 0, -0.0002235809, 1.61921E-05, 0.0003200913
2, 11, 0, 2.933466, 3.645283, -59.59323, 1.357491, 2.094508, 0, 0
3, 118, 0, 0, 0, 12.42063, 0.08150682, 0.1893095, -0.3593519, 1117, 0, 0, 0
1, 0.3272603, 0.02033435, 0.01633757, -0.4803027, 0.1804753, 0, 0, -0.3727142, 0, 0, 0.001009321, 0.0003569693, 0.001275781
2, 11, 0, 3.042826, 3.68874, -59.46972, 1.429119, 2.109243, 0, 0
3, 119, 0, 0, 0, 12.42063, 0.08150682, 0.1804753, -0.3727142, 1116, 0, 0, 0
1, 0.3290896, 0.02048138, 0.01641722, -0.4801983, 0.157322, 0, 0, -0.4008134, 0, 0, -5.953094E-05, 0.0003757113, 0.0004850144
2, 11, 0, 2.993901, 3.716705, -59.54977, 1.388988, 2.124754, 0, 0
3, 119, 0, 0, 0, 12.36584, 0.08439092, 0.157322, -0.4008134, 1116, 0, 0, 0
1, 0.3290896, 0.02065074, 0.01656945, -0.4799702, 0.1830606, 0, 0, -0.3771199, 0, 0, 0.0003704768, 7.348214E-05, 0.0003393929
2, 12, 0, 3.009653, 3.723012, -59.48407, 1.392999, 2.13746, 0, 0
3, 120, 0, 0, 0, 12.36584, 0.08439092, 0.1830606, -0.3771199, 1117, 0, 0, 0
1, 0.3327428, 0.02075649, 0.01670782, -0.4797955, 0.1596206, 0, 0, -0.406645, 0, 0, 0.001078593, -0.0003515377, 0.000899037
2, 12, 0, 3.07933, 3.708045, -59.4008, 1.437539, 2.141627, 0, 0
3, 120, 0, 0, 0, 12.4219, 0.08561793, 0.1596206, -0.406645, 1116, 0, 0, 0
1, 0.3327428, 0.0209447, 0.0168612, -0.479535, 0.1969712, 0, 0, -0.3737148, 0, 0, 0.000469516, 0.0002740151, 0.0008169581
2, 12, 0, 3.100373, 3.791968, -59.42149, 1.4454, 2.171066, 0, 0
3, 121, 0, 0, 0, 12.4219, 0.08561793, 0.1969712, -0.3737148, 1116, 0, 0, 0
1, 0.3457257, 0.02113618, 0.01698586, -0.4793695, 0.1737397, 0, 0, -0.4032088, 0, 0, 0.000182295, 0.0007068356, 0.0007107245
2, 12, 0, 3.114312, 3.861059, -59.42595, 1.449453, 2.197773, 0, 0
3, 121, 0, 0, 0, 12.41982, 0.08740348, 0.1737397, -0.4032088, 1116, 0, 0, 0
1, 0.3457257, 0.02120945, 0.01718473, -0.4792496, 0.1950247, 0, 0, -0.3877833, 0, 0, 0.0002713635, 0.000117104, 0.0004160541
2, 12, 0, 3.126535, 3.82707, -59.40334, 1.448521, 2.195954, 0, 0
3, 122, 0, 0, 0, 12.41982, 0.08740348, 0.1950247, -0.3877833, 1116, 0, 0, 0
1, 0.3549176, 0.02120382, 0.01737048, -0.4791611, 0.1709156, 0, 0, -0.4182135, 0, 0, 0.0005765331, 0.0004466766, 0.001437842
2, 12, 0, 3.241714, 3.852421, -59.36581, 1.524301, 2.200617, 0, 0
3, 122, 0, 0, 0, 12.44812, 0.08892626, 0.1709156, -0.4182135, 1116, 0, 0, 0
1, 0.3549176, 0.02138124, 0.01748626, -0.4789042, 0.1718087, 0, 0, -0.4210316, 0, 0, 0.001133708, -0.0003066408, 0.0003486013
2, 12, 0, 3.175416, 3.824092, -59.28549, 1.469525, 2.20697, 0, 0
3, 123, 0, 0, 0, 12.44812, 0.08892626, 0.1718087, -0.4210316, 1116, 0, 0, 0
1, 0.3535669, 0.02147583, 0.01773608, -0.4787167, 0.1457257, 0, 0, -0.4504679, 0, 0, 0.0006747171, 3.403586E-05, -0.0003592886
2, 12, 0, 3.163751, 3.868372, -59.30217, 1.448394, 2.22218, 0, 0
3, 123, 0, 0, 0, 12.43817, 0.0900672, 0.1457257, -0.4504679, 1116, 0, 0, 0
1, 0.3535669, 0.02174427, 0.01788297, -0.4784952, 0.1652174, 0, 0, -0.4388569, 0, 0, -3.555922E-05, -0.0001215151, -0.0004945954
2, 12, 0, 3.179367, 3.904247, -59.3365, 1.452572, 2.247476, 0, 0
3, 124, 0, 0, 0, 12.43817, 0.0900672, 0.1652174, -0.4388569, 1116, 0, 0, 0
1, 0.3526463, 0.02195751, 0.01799894, -0.4782882, 0.1380711, 0, 0, -0.4684964, 0, 0, 0.0007957591, 0.0008663727, 0.0006509561
2, 12, 0, 3.291885, 4.021662, -59.2385, 1.529884, 2.28528, 0, 0
3, 124, 0, 0, 0, 12.44016, 0.09311198, 0.1380711, -0.4684964, 1116, 0, 0, 0
1, 0.3526463, 0.02224891, 0.01808001, -0.4779846, 0.1662271, 0, 0, -0.4492898, 0, 0, 0.0005413944, 0.0002260602, 0.0009683799
2, 12, 0, 3.331873, 4.022889, -59.22299, 1.555363, 2.305229, 0, 0
3, 125, 0, 0, 0, 12.44016, 0.09311198, 0.1662271, -0.4492898, 1116, 0, 0, 0
1, 0.3600926, 0.02238835, 0.01821158, -0.4778062, 0.1384882, 0, 0, -0.4783889, 0, 0, 0.001396068, -8.54496E-05, 0.0006330051
2, 12, 0, 3.328725, 4.023067, -59.12652, 1.546446, 2.314691, 0, 0
3, 125, 0, 0, 0, 12.40562, 0.09404341, 0.1384882, -0.4783889, 1117, 0, 0, 0
1, 0.3600926, 0.02258475, 0.01838378, -0.4775853, 0.1639419, 0, 0, -0.4612738, 0, 0, 0.0007164389, 0.0001931618, 0.0007835041
2, 12, 0, 3.371761, 4.080709, -59.15825, 1.569613, 2.33945, 0, 0
3, 126, 0, 0, 0, 12.40562, 0.09404341, 0.1639419, -0.4612738, 1117, 0, 0, 0
1, 0.3716551, 0.022706, 0.01849373, -0.4773753, 0.1354787, 0, 0, -0.4893697, 0, 0, 0.0008646959, 0.0002905897, 0.0008158202
2, 12, 0, 3.394137, 4.110327, -59.11931, 1.580636, 2.353546, 0, 0
3, 126, 0, 0, 0, 12.41006, 0.09594887, 0.1354787, -0.4893697, 1117, 0, 0, 0
1, 0.3716551, 0.02285045, 0.01857161, -0.4771355, 0.1569147, 0, 0, -0.4767857, 0, 0, 0.0006233709, 0.0002578239, 0.0003514436
2, 12, 0, 3.371005, 4.133707, -59.11057, 1.559646, 2.36797, 0, 0
3, 127, 0, 0, 0, 12.41006, 0.09594887, 0.1569147, -0.4767857, 1116, 0, 0, 0
1, 0.3773727, 0.02301372, 0.01869296, -0.4768865, 0.1274346, 0, 0, -0.5071728, 0, 0, 0.0009843071, 0.00090527, 0.001007608
2, 12, 0, 3.445341, 4.21489, -59.04829, 1.608483, 2.395178, 0, 0
3, 127, 0, 0, 0, 12.40291, 0.09708606, 0.1274346, -0.5071728, 1116, 0, 0, 0
1, 0.3773727, 0.02314211, 0.01891561, -0.4765896, 0.1314361, 0, 0, -0.5087109, 0, 0, 0.0005257615, 4.875788E-05, 0.0003248955
2, 12, 0, 3.430802, 4.16948, -59.05137, 1.586588, 2.39481, 0, 0
3, 128, 0, 0, 0, 12.40291, 0.09708606, 0.1314361, -0.5087109, 1116, 0, 0, 0
1, 0.3734249, 0.0233701, 0.01907784, -0.4763215, 0.1000179, 0, 0, -0.5388928, 0, 0, 0.000201092, 0.0006732313, 0.0008854158
2, 12, 0, 3.504844, 4.260477, -59.04637, 1.633161, 2.42835, 0, 0
3, 128, 0, 0, 0, 12.40291, 0.09966963, 0.1000179, -0.5388928, 1117, 0, 0, 0
1, 0.3734249, 0.02354394, 0.01917123, -0.4761164, 0.1199012, 0, 0, -0.5272396, 0, 0, -2.702793E-06, 0.0006529722, 0.0009234345
2, 12, 0, 3.524697, 4.290148, -59.03867, 1.643149, 2.446014, 0, 0
3, 129, 0, 0, 0, 12.40291, 0.09966963, 0.1199012, -0.5272396, 1116, 0, 0, 0
1, 0.368324, 0.02376556, 0.01937078, -0.4759119, 0.08757889, 0, 0, -0.5543368, 0, 0, 0.001114054, 0.001285757, 0.001308292
2, 12, 0, 3.591403, 4.380661, -58.91615, 1.682434, 2.479024, 0, 0
3, 129, 0, 0, 0, 12.42958, 0.1010407, 0.08757889, -0.5543368, 1116, 0, 0, 0
1, 0.368324, 0.02394924, 0.0195056, -0.4756401, 0.1072986, 0, 0, -0.5432492, 0, 0, 0.0001345052, -0.0004545584, 0.0009490488
2, 13, 0, 3.586931, 4.274498, -58.96767, 1.672377, 2.470299, 0, 0
3, 130, 0, 0, 0, 12.42958, 0.1010407, 0.1072986, -0.5432492, 1116, 0, 0, 0
1, 0.3657209, 0.02410039, 0.01959922, -0.4753149, 0.07392709, 0, 0, -0.5721352, 0, 0, 0.0007374539, 0.0002043567, 0.0008891772
2, 13, 0, 3.598993, 4.354418, -58.87488, 1.676598, 2.496437, 0, 0
3, 130, 0, 0, 0, 12.41648, 0.1024614, 0.07392709, -0.5721352, 1116, 0, 0, 0
1, 0.3657209, 0.02421849, 0.0197271, -0.4751062, 0.08906426, 0, 0, -0.5633032, 0, 0, -0.0006989903, 0.0003870213, 0.0008194132
2, 13, 0, 3.61643, 4.390289, -58.97398, 1.683074, 2.511566, 0, 0
3, 131, 0, 0, 0, 12.41648, 0.1024614, 0.08906426, -0.5633032, 1116, 0, 0, 0
1, 0.3654531, 0.02438472, 0.01985712, -0.4748269, 0.0543021, 0, 0, -0.5918139, 0, 0, 0.001736786, -0.0005767099, 0.0004493095
2, 13, 0, 3.610226, 4.343112, -58.72744, 1.671976, 2.513408, 0, 0
3, 131, 0, 0, 0, 12.41982, 0.1039506, 0.0543021, -0.5918139, 1115, 0, 0, 0
1, 0.3654531, 0.02451922, 0.01999857, -0.4745896, 0.083249, 0, 0, -0.5732034, 0, 0, 0.0003160151, -2.048385E-05, 0.001023122
2, 13, 0, 3.681592, 4.41182, -58.82162, 1.717615, 2.536185, 0, 0
3, 132, 0, 0, 0, 12.41982, 0.1039506, 0.083249, -0.5732034, 1116, 0, 0, 0
1, 0.3722508, 0.02459585, 0.02012363, -0.4744265, 0.04752032, 0, 0, -0.6029331, 0, 0, 0.0006513771, 0.0005726445, 0.0005129377
2, 13, 0, 3.663287, 4.473065, -58.77222, 1.697827, 2.553563, 0, 0
3, 132, 0, 0, 0, 12.38754, 0.1050992, 0.04752032, -0.6029331, 1117, 0, 0, 0
1, 0.3722508, 0.02460178, 0.02023788, -0.4742045, 0.07632725, 0, 0, -0.584923, 0, 0, 0.0002787694, 0.0001049256, 0.0003787072
2, 13, 0, 3.673115, 4.436714, -58.7771, 1.699363, 2.54672, 0, 0
3, 133, 0, 0, 0, 12.38754, 0.1050992, 0.07632725, -0.584923, 1116, 0, 0, 0
1, 0.3798994, 0.02461079, 0.02032917, -0.4739215, 0.04032744, 0, 0, -0.6138342, 0, 0, 0.0003637881, -0.0004018387, 0.0006286738
2, 13, 0, 3.709544, 4.397795, -58.73462, 1.721704, 2.539574, 0, 0
3, 133, 0, 0, 0, 12.42633, 0.1070457, 0.04032744, -0.6138342, 1117, 0, 0, 0
1, 0.3798994, 0.02471818, 0.0204702, -0.4737049, 0.05126014, 0, 0, -0.6084166, 0, 0, 0.0007276866, 0.0004835375, 0.0003581156
2, 13, 0, 3.713285, 4.487956, -58.6761, 1.717402, 2.564791, 0, 0
3, 134, 0, 0, 0, 12.42633, 0.1070457, 0.05126014, -0.6084166, 1116, 0, 0, 0
1, 0.3776985, 0.02484494, 0.0206426, -0.4735042, 0.01401028, 0, 0, -0.6369876, 0, 0, 7.255306E-05, 0.0001448517, 0.0007966739
2, 13, 0, 3.779402, 4.483677, -58.70821, 1.757613, 2.572506, 0, 0
3, 134, 0, 0, 0, 12.42552, 0.1081455, 0.01401028, -0.6369876, 1116, 0, 0, 0
1, 0.3776985, 0.02499168, 0.02072803, -0.4732595, 0.03195363, 0, 0, -0.6254338, 0, 0, 0.0009921181, -0.0001212695, 0.001128864
2, 13, 0, 3.821354, 4.4888, -58.59786, 1.784328, 2.583448, 0, 0
3, 135, 0, 0, 0, 12.42552, 0.1081455, 0.03195363, -0.6254338, 1117, 0, 0, 0
1, 0.3709377, 0.02500361, 0.02081902, -0.4730086, -0.006270384, 0, 0, -0.6551064, 0, 0, 0.0004993051, 0.0001571906, 0.0006781342
2, 13, 0, 3.801675, 4.513224, -58.60963, 1.76523, 2.589117, 0, 0
3, 135, 0, 0, 0, 12.40029, 0.1108203, -0.006270384, -0.6551064, 1117, 0, 0, 0
1, 0.3709377, 0.02512569, 0.02092755, -0.4728196, 0.0204431, 0, 0, -0.635949, 0, 0, 0.0002360031, -0.0003931487, 0.0007937128
2, 13, 0, 3.830456, 4.491173, -58.6091, 1.781057, 2.592978, 0, 0
3, 136, 0, 0, 0, 12.40029, 0.1108203, 0.0204431, -0.635949, 1116, 0, 0, 0
1, 0.3680511, 0.02520046, 0.02103677, -0.4726637, -0.01826606, 0, 0, -0.6634783, 0, 0, 0.0006821867, -0.0002520528, 0.0001944381
2, 13, 0, 3.802174, 4.515919, -58.55095, 1.75469, 2.602961, 0, 0
3, 136, 0, 0, 0, 12.38664, 0.1121304, -0.01826606, -0.6634783, 1116, 0, 0, 0
1, 0.3680511, 0.02535195, 0.02116916, -0.4724027, 0.006577401, 0, 0, -0.6446881, 0, 0, 0.0001728449, 0.0002781843, 7.833596E-05
2, 13, 0, 3.816715, 4.585606, -58.5629, 1.758801, 2.627083, 0, 0
3, 137, 0, 0, 0, 12.38664, 0.1121304, 0.006577401, -0.6446881, 1116, 0, 0, 0
1, 0.3652337, 0.0255406, 0.02122952, -0.472164, -0.03288604, 0, 0, -0.6730394, 0, 0, 0.0005615448, 0.000373985, 0.0003976048
2, 13, 0, 3.853123, 4.627226, -58.49948, 1.782676, 2.648131, 0, 0
3, 137, 0, 0, 0, 12.42958, 0.1134619, -0.03288604, -0.6730394, 1116, 0, 0, 0
1, 0.3652337, 0.0256962, 0.02128055, -0.4719935, -0.01566947, 0, 0, -0.6609384, 0, 0, 0.0008435327, 0.0004296523, 0.000600545
2, 13, 0, 3.878542, 4.659689, -58.45381, 1.7989, 2.66512, 0, 0
3, 138, 0, 0, 0, 12.42958, 0.1134619, -0.01566947, -0.6609384, 1116, 0, 0, 0
1, 0.3581055, 0.02581383, 0.02137972, -0.4718586, -0.05606955, 0, 0, -0.6893665, 0, 0, 4.313142E-07, -0.0006462787, -3.186894E-05
2, 13, 0, 3.8458, 4.594787, -58.51043, 1.76974, 2.660145, 0, 0
3, 138, 0, 0, 0, 12.43365, 0.1150048, -0.05606955, -0.6893665, 1116, 0, 0, 0
1, 0.3581055, 0.02597404, 0.02148387, -0.4716844, -0.03179053, 0, 0, -0.6710089, 0, 0, 0.00112188, -0.0003497112, -0.0001631827
2, 13, 0, 3.854042, 4.647349, -58.39126, 1.770611, 2.681447, 0, 0
3, 139, 0, 0, 0, 12.43365, 0.1150048, -0.03179053, -0.6710089, 1116, 0, 0, 0
1, 0.3547931, 0.02607455, 0.02158039, -0.4714587, -0.07274991, 0, 0, -0.6983867, 0, 0, 8.981268E-05, 7.060931E-05, 0.001162488
2, 13, 0, 3.97747, 4.699067, -58.45307, 1.856969, 2.698544, 0, 0
3, 139, 0, 0, 0, 12.42145, 0.1157771, -0.07274991, -0.6983867, 1116, 0, 0, 0
1, 0.3547931, 0.02617491, 0.02164793, -0.4712382, -0.032775, 0, 0, -0.6679481, 0, 0, 0.0005345834, 6.489828E-05, 0.0008140648
2, 14, 0, 3.961753, 4.716676, -58.38703, 1.841973, 2.708837, 0, 0
3, 140, 0, 0, 0, 12.42145, 0.1157771, -0.032775, -0.6679481, 1116, 0, 0, 0
1, 0.361959, 0.02622918, 0.02171529, -0.4709635, -0.07354926, 0, 0, -0.6953002, 0, 0, -0.0001606252, 7.896878E-05, 0.0005724195
2, 14, 0, 3.954546, 4.727571, -58.41344, 1.833274, 2.714676, 0, 0
3, 140, 0, 0, 0, 12.4653, 0.1186051, -0.07354926, -0.6953002, 1116, 0, 0, 0
1, 0.361959, 0.02628309, 0.02178502, -0.4708462, -0.04081506, 0, 0, -0.6705664, 0, 0, -0.0001985822, 2.187248E-05, 0.0002794889
2, 14, 0, 3.943663, 4.732705, -58.40221, 1.821739, 2.719342, 0, 0
3, 141, 0, 0, 0, 12.4653, 0.1186051, -0.04081506, -0.6705664, 1116, 0, 0, 0
1, 0.3699629, 0.02631546, 0.02180063, -0.4705536, -0.0821626, 0, 0, -0.7000918, 0, 0, 0.001208445, 0.0001505657, 0.0002422555
2, 14, 0, 3.943493, 4.748829, -58.24351, 1.820832, 2.724743, 0, 0
3, 141, 0, 0, 0, 12.43447, 0.1198683, -0.0821626, -0.7000918, 1116, 0, 0, 0
1, 0.3699629, 0.02649244, 0.02190224, -0.4702997, -0.05803387, 0, 0, -0.681567, 0, 0, -0.0001525702, 0.0004692962, 0.0006316658
2, 14, 0, 3.992937, 4.806183, -58.33043, 1.852272, 2.748135, 0, 0
3, 142, 0, 0, 0, 12.43447, 0.1198683, -0.05803387, -0.681567, 1116, 0, 0, 0
1, 0.365421, 0.026631, 0.02198482, -0.4700966, -0.09967092, 0, 0, -0.7085497, 0, 0, 0.0006363972, 0.0002176326, 0.0003167243
2, 14, 0, 3.982606, 4.810991, -58.23661, 1.840502, 2.758462, 0, 0
3, 142, 0, 0, 0, 12.39749, 0.12179, -0.09967092, -0.7085497, 1116, 0, 0, 0
1, 0.365421, 0.02669017, 0.02210294, -0.4699243, -0.08454767, 0, 0, -0.6949886, 0, 0, 4.573473E-05, 0.0003842034, 0.0003845904
2, 14, 0, 4.009295, 4.834967, -58.26664, 1.854304, 2.767235, 0, 0
3, 143, 0, 0, 0, 12.39749, 0.12179, -0.08454767, -0.6949886, 1116, 0, 0, 0
1, 0.3565485, 0.0268066, 0.02220574, -0.469657, -0.1270474, 0, 0, -0.7236659, 0, 0, -4.171281E-05, -6.129606E-05, 0.000217777
2, 14, 0, 4.014455, 4.820284, -58.24109, 1.852966, 2.772182, 0, 0
3, 143, 0, 0, 0, 12.40201, 0.1228901, -0.1270474, -0.7236659, 1116, 0, 0, 0
1, 0.3565485, 0.02697047, 0.02236733, -0.469449, -0.07485598, 0, 0, -0.6836636, 0, 0, 0.0002858175, 0.0003348759, 0.001071624
2, 14, 0, 4.111849, 4.881474, -58.18681, 1.91683, 2.795448, 0, 0
3, 144, 0, 0, 0, 12.40201, 0.1228901, -0.07485598, -0.6836636, 1116, 0, 0, 0
1, 0.3591698, 0.02706987, 0.02247244, -0.4691743, -0.1166434, 0, 0, -0.7110125, 0, 0, 0.001005356, 0.0006200965, -0.0004106171
2, 14, 0, 4.01219, 4.922184, -58.09015, 1.83793, 2.810277, 0, 0
3, 144, 0, 0, 0, 12.39948, 0.1246643, -0.1166434, -0.7110125, 1116, 0, 0, 0
1, 0.3591698, 0.02712569, 0.02254748, -0.4690053, -0.08485457, 0, 0, -0.6847805, 0, 0, 0.0001519444, 0.0002159107, 0.000226474
2, 14, 0, 4.076664, 4.899898, -58.14343, 1.881808, 2.80961, 0, 0
3, 145, 0, 0, 0, 12.39948, 0.1246643, -0.08485457, -0.6847805, 1116, 0, 0, 0
1, 0.3672126, 0.02720203, 0.02263644, -0.4688429, -0.1267779, 0, 0, -0.7127479, 0, 0, 0.001152625, 0.0004271458, 0.0004329109
2, 14, 0, 4.109191, 4.930537, -58.03624, 1.901384, 2.820873, 0, 0
3, 145, 0, 0, 0, 12.40562, 0.1260822, -0.1267779, -0.7127479, 1117, 0, 0, 0
1, 0.3672126, 0.02722293, 0.02279768, -0.4686096, -0.08790044, 0, 0, -0.6830822, 0, 0, -9.392143E-05, -6.756217E-05, 0.0008867424
2, 14, 0, 4.174522, 4.894722, -58.11576, 1.941577, 2.815146, 0, 0
3, 146, 0, 0, 0, 12.40562, 0.1260822, -0.08790044, -0.6830822, 1116, 0, 0, 0
1, 0.369574, 0.02735886, 0.02282764, -0.4683117, -0.1295597, 0, 0, -0.7103303, 0, 0, 0.0003781828, -0.0002461209, 0.001470269
2, 14, 0, 4.226597, 4.904906, -58.03775, 1.978553, 2.826368, 0, 0
3, 146, 0, 0, 0, 12.40029, 0.127108, -0.1295597, -0.7103303, 1116, 0, 0, 0
1, 0.369574, 0.02752171, 0.02285337, -0.4680285, -0.1037397, 0, 0, -0.6885451, 0, 0, 0.0007919798, 0.0004805812, 0.0006111283
2, 14, 0, 4.162496, 4.992354, -57.96663, 1.929901, 2.854803, 0, 0
3, 147, 0, 0, 0, 12.40029, 0.127108, -0.1037397, -0.6885451, 1117, 0, 0, 0
1, 0.369832, 0.02765746, 0.02290764, -0.4677393, -0.1458133, 0, 0, -0.7155926, 0, 0, -0.000205315, -0.0001256534, 0.0009503392
2, 14, 0, 4.199403, 4.968291, -58.01754, 1.954451, 2.85919, 0, 0
3, 147, 0, 0, 0, 12.40834, 0.1289104, -0.1458133, -0.7155926, 1116, 0, 0, 0
1, 0.369832, 0.02772919, 0.02296492, -0.4674925, -0.09305419, 0, 0, -0.6734841, 0, 0, 0.000780678, 0.000961352, 0.0009175366
2, 14, 0, 4.207088, 5.068162, -57.90115, 1.95726, 2.883934, 0, 0
3, 148, 0, 0, 0, 12.40834, 0.1289104, -0.09305419, -0.6734841, 1116, 0, 0, 0
1, 0.3793737, 0.02786529, 0.02305365, -0.4672792, -0.1343242, 0, 0, -0.7016114, 0, 0, 0.0005130154, -0.0007885083, 0.0009335505
2, 14, 0, 4.224341, 4.952671, -57.89799, 1.965562, 2.87013, 0, 0
3, 148, 0, 0, 0, 12.41575, 0.1295488, -0.1343242, -0.7016114, 1116, 0, 0, 0
1, 0.3793737, 0.02798273, 0.02319242, -0.4670455, -0.08639701, 0, 0, -0.664405, 0, 0, 0.0002268578, 0.0003893695, 0.0009926134
2, 14, 0, 4.254044, 5.06804, -57.89391, 1.980557, 2.90105, 0, 0
3, 149, 0, 0, 0, 12.41575, 0.1295488, -0.08639701, -0.664405, 1116, 0, 0, 0
1, 0.3948445, 0.02806805, 0.023297, -0.4668022, -0.1271054, 0, 0, -0.692643, 0, 0, -0.0005707233, 0.0001499292, 0.001280497
2, 14, 0, 4.2959, 5.064244, -57.93313, 2.006245, 2.906061, 0, 0
3, 149, 0, 0, 0, 12.38393, 0.1322504, -0.1271054, -0.692643, 1116, 0, 0, 0
1, 0.3948445, 0.02818687, 0.02340964, -0.466555, -0.08728897, 0, 0, -0.6621741, 0, 0, 0.0001931541, -0.0003742539, 0.0005613561
2, 15, 0, 4.258644, 5.043696, -57.83601, 1.973072, 2.910001, 0, 0
3, 150, 0, 0, 0, 12.38393, 0.1322504, -0.08728897, -0.6621741, 1116, 0, 0, 0
1, 0.4108794, 0.02829693, 0.02345764, -0.4662257, -0.1279578, 0, 0, -0.6908787, 0, 0, 0.000444017, -0.0002096185, 0.002073321
2, 15, 0, 4.38824, 5.076678, -57.77336, 2.066427, 2.924013, 0, 0
3, 150, 0, 0, 0, 12.41195, 0.1332097, -0.1279578, -0.6908787, 1116, 0, 0, 0
1, 0.4108794, 0.02840933, 0.02353596, -0.4659169, -0.06756027, 0, 0, -0.6431643, 0, 0, 0.0004560861, 1.214118E-05, 0.000375514
2, 15, 0, 4.266513, 5.11465, -57.73401, 1.972558, 2.939178, 0, 0
3, 151, 0, 0, 0, 12.41195, 0.1332097, -0.06756027, -0.6431643, 1116, 0, 0, 0
1, 0.4264835, 0.02848273, 0.02364583, -0.4657948, -0.1069556, 0, 0, -0.6707233, 0, 0, 0.0002176168, 0.0007232712, 0.0008076705
2, 15, 0, 4.320864, 5.184753, -57.73962, 2.007213, 2.958103, 0, 0
3, 151, 0, 0, 0, 12.36611, 0.134749, -0.1069556, -0.6707233, 1116, 0, 0, 0
1, 0.4264835, 0.02852843, 0.02376576, -0.4656048, -0.07498643, 0, 0, -0.6473181, 0, 0, -0.0004779965, 0.0007482631, 0.0008598534
2, 15, 0, 4.346625, 5.194979, -57.77658, 2.020239, 2.963226, 0, 0
3, 152, 0, 0, 0, 12.36611, 0.134749, -0.07498643, -0.6473181, 1116, 0, 0, 0
1, 0.4327561, 0.02858069, 0.02384144, -0.4654166, -0.1145441, 0, 0, -0.6733173, 0, 0, 0.0008270817, -0.0002347415, 0.0009281987
2, 15, 0, 4.365716, 5.125744, -57.6397, 2.030554, 2.952965, 0, 0
3, 152, 0, 0, 0, 12.39658, 0.1359994, -0.1145441, -0.6733173, 1116, 0, 0, 0
1, 0.4327561, 0.02865085, 0.02397179, -0.4652511, -0.06922835, 0, 0, -0.6397809, 0, 0, 0.0009936941, -9.447495E-07, 0.0004876747
2, 15, 0, 4.353935, 5.157077, -57.60468, 2.015318, 2.963947, 0, 0
3, 153, 0, 0, 0, 12.39658, 0.1359994, -0.06922835, -0.6397809, 1116, 0, 0, 0
1, 0.4351577, 0.02866898, 0.02411998, -0.4650803, -0.1084579, 0, 0, -0.6675743, 0, 0, 0.001041651, 0.0008640771, -0.0003195506
2, 15, 0, 4.316031, 5.229543, -57.57933, 1.979885, 2.979603, 0, 0
3, 153, 0, 0, 0, 12.39052, 0.1373123, -0.1084579, -0.6675743, 1116, 0, 0, 0
1, 0.4351577, 0.02870277, 0.02426997, -0.4649802, -0.05707733, 0, 0, -0.6286413, 0, 0, 0.0006440284, -3.4342E-06, 0.0008375637
2, 15, 0, 4.4356, 5.166223, -57.60151, 2.060721, 2.969266, 0, 0
3, 154, 0, 0, 0, 12.39052, 0.1373123, -0.05707733, -0.6286413, 1116, 0, 0, 0
1, 0.4458301, 0.02887543, 0.02434359, -0.4647951, -0.09552976, 0, 0, -0.6546737, 0, 0, 0.0008263895, -0.0001922764, 0.001030956
2, 15, 0, 4.464323, 5.182196, -57.5627, 2.078257, 2.984125, 0, 0
3, 154, 0, 0, 0, 12.41195, 0.1389853, -0.09552976, -0.6546737, 1117, 0, 0, 0
1, 0.4458301, 0.02901359, 0.02428038, -0.4645011, -0.03889063, 0, 0, -0.6133393, 0, 0, 0.0005383247, 0.0004299724, -4.445117E-05
2, 15, 0, 4.366912, 5.256845, -57.5513, 2.009444, 3.008346, 0, 0
3, 155, 0, 0, 0, 12.41195, 0.1389853, -0.03889063, -0.6133393, 1116, 0, 0, 0
1, 0.4533585, 0.02904295, 0.02435776, -0.4642292, -0.07641474, 0, 0, -0.639974, 0, 0, 3.171642E-05, 0.0009606008, 0.0006554121
2, 15, 0, 4.436829, 5.304579, -57.56166, 2.057231, 3.019837, 0, 0
3, 155, 0, 0, 0, 12.46349, 0.1400995, -0.07641474, -0.639974, 1116, 0, 0, 0
1, 0.4533585, 0.02912561, 0.02448892, -0.4640276, -0.05811112, 0, 0, -0.6267678, 0, 0, 0.00106253, 0.0001759735, 0.0006797524
2, 15, 0, 4.462387, 5.256688, -57.44698, 2.069544, 3.015882, 0, 0
3, 156, 0, 0, 0, 12.46349, 0.1400995, -0.05811112, -0.6267678, 1116, 0, 0, 0
1, 0.4462156, 0.02926568, 0.02453036, -0.4637833, -0.09649292, 0, 0, -0.6525258, 0, 0, 0.0006064584, 0.0005671816, -0.0003654943
2, 15, 0, 4.386225, 5.313196, -57.45636, 2.011189, 3.036613, 0, 0
3, 156, 0, 0, 0, 12.38808, 0.1430293, -0.09649292, -0.6525258, 1116, 0, 0, 0
1, 0.4462156, 0.02934883, 0.02467487, -0.4636343, -0.04666517, 0, 0, -0.6173778, 0, 0, 0.0008584005, 7.826131E-06, 0.0006293069
2, 15, 0, 4.491821, 5.283415, -57.41597, 2.081977, 3.036298, 0, 0
3, 157, 0, 0, 0, 12.38808, 0.1430293, -0.04666517, -0.6173778, 1116, 0, 0, 0
1, 0.4412972, 0.02943653, 0.02479204, -0.4634278, -0.08451669, 0, 0, -0.6450104, 0, 0, 0.0006028148, 0.0001095511, 4.545428E-05
2, 15, 0, 4.466204, 5.307339, -57.41261, 2.057176, 3.046991, 0, 0
3, 157, 0, 0, 0, 12.43727, 0.1441266, -0.08451669, -0.6450104, 1116, 0, 0, 0
1, 0.4412972, 0.02954477, 0.02486384, -0.4631476, -0.03445248, 0, 0, -0.6103536, 0, 0, 0.0003165557, 0.0003741077, 4.283547E-05
2, 15, 0, 4.478919, 5.347987, -57.40276, 2.062974, 3.062407, 0, 0
3, 158, 0, 0, 0, 12.43727, 0.1441266, -0.03445248, -0.6103536, 1116, 0, 0, 0
1, 0.4456272, 0.02955535, 0.02500718, -0.462923, -0.071837, 0, 0, -0.6377566, 0, 0, 0.0005631679, 0.0001293633, 0.0001559002
2, 15, 0, 4.513764, 5.330312, -57.35346, 2.08154, 3.059595, 0, 0
3, 158, 0, 0, 0, 12.37669, 0.1460751, -0.071837, -0.6377566, 1116, 0, 0, 0
1, 0.4456272, 0.02962281, 0.02503889, -0.4627519, -0.03444798, 0, 0, -0.6119454, 0, 0, 0.001926499, 0.0005236837, 0.001038074
2, 15, 0, 4.590047, 5.374, -57.21363, 2.136322, 3.072859, 0, 0
3, 159, 0, 0, 0, 12.37669, 0.1460751, -0.03444798, -0.6119454, 1116, 0, 0, 0
1, 0.4463404, 0.02961741, 0.025036, -0.4625333, -0.07195033, 0, 0, -0.6383427, 0, 0, 0.0007764208, 0.0001788193, -0.000255506
2, 15, 0, 4.486039, 5.34544, -57.28658, 2.059609, 3.066805, 0, 0
3, 159, 0, 0, 0, 12.39785, 0.1472154, -0.07195033, -0.6383427, 1116, 0, 0, 0
1, 0.4463404, 0.02972748, 0.02508923, -0.462301, -0.03717189, 0, 0, -0.6148819, 0, 0, 0.0004934081, 0.0002421281, 0.0007017968
2, 16, 0, 4.572206, 5.370316, -57.2824, 2.120615, 3.079204, 0, 0
3, 160, 0, 0, 0, 12.39785, 0.1472154, -0.03717189, -0.6148819, 1116, 0, 0, 0
1, 0.4349028, 0.02977526, 0.0250945, -0.4620887, -0.07485259, 0, 0, -0.6415, 0, 0, 0.0006463181, 0.0009352884, 0.000472586
2, 16, 0, 4.554817, 5.434369, -57.24277, 2.107501, 3.095196, 0, 0
3, 160, 0, 0, 0, 12.40472, 0.1484421, -0.07485259, -0.6415, 1116, 0, 0, 0
1, 0.4349028, 0.02988301, 0.02515346, -0.4618568, -0.05534916, 0, 0, -0.629126, 0, 0, 0.0007168873, 0.0004328975, 0.001184332
2, 16, 0, 4.622369, 5.413574, -57.20787, 2.154466, 3.098341, 0, 0
3, 161, 0, 0, 0, 12.40472, 0.1484421, -0.05534916, -0.629126, 1116, 0, 0, 0
1, 0.4167296, 0.02999659, 0.02517222, -0.4616612, -0.09383237, 0, 0, -0.6561569, 0, 0, 0.001291944, 0.0001161067, 0.0008664659
2, 16, 0, 4.600317, 5.408675, -57.13359, 2.13723, 3.105047, 0, 0
3, 161, 0, 0, 0, 12.44993, 0.1504952, -0.09383237, -0.6561569, 1116, 0, 0, 0
1, 0.4167296, 0.03003586, 0.02522573, -0.4614173, -0.04844964, 0, 0, -0.6256129, 0, 0, 0.0006630658, 0.0007448965, 0.0007147854
2, 16, 0, 4.597815, 5.466047, -57.15805, 2.132699, 3.119131, 0, 0
3, 162, 0, 0, 0, 12.44993, 0.1504952, -0.04844964, -0.6256129, 1116, 0, 0, 0
1, 0.4110918, 0.03014373, 0.02529029, -0.461177, -0.08679242, 0, 0, -0.6528324, 0, 0, 0.0008810485, 0.0002543455, 0.000916235
2, 16, 0, 4.62555, 5.446219, -57.1093, 2.14996, 3.122475, 0, 0
3, 162, 0, 0, 0, 12.39749, 0.1513827, -0.08679242, -0.6528324, 1116, 0, 0, 0
1, 0.4110918, 0.03029037, 0.02535787, -0.4610523, -0.03863643, 0, 0, -0.6212234, 0, 0, 0.001259787, 0.0006953124, 0.0008267439
2, 16, 0, 4.630557, 5.507891, -57.06088, 2.150273, 3.144678, 0, 0
3, 163, 0, 0, 0, 12.39749, 0.1513827, -0.03863643, -0.6212234, 1117, 0, 0, 0
1, 0.4225311, 0.03040843, 0.0254044, -0.4608267, -0.07669825, 0, 0, -0.6479059, 0, 0, 0.00131168, 0.0001000015, 0.0008060477
2, 16, 0, 4.637275, 5.481517, -57.02839, 2.152907, 3.147408, 0, 0
3, 163, 0, 0, 0, 12.35879, 0.1531707, -0.07669825, -0.6479059, 1116, 0, 0, 0
1, 0.4225311, 0.03038366, 0.02547599, -0.4606606, -0.03309396, 0, 0, -0.6198833, 0, 0, 0.001179778, 0.0001306953, 0.0003053159
2, 16, 0, 4.610104, 5.479514, -57.01927, 2.12924, 3.14533, 0, 0
3, 164, 0, 0, 0, 12.35879, 0.1531707, -0.03309396, -0.6198833, 1116, 0, 0, 0
1, 0.4406365, 0.0304763, 0.02552724, -0.460529, -0.07098816, 0, 0, -0.6453354, 0, 0, 0.0002169169, 3.840751E-06, 0.0001240558
2, 16, 0, 4.604827, 5.486041, -57.08673, 2.122773, 3.152895, 0, 0
3, 164, 0, 0, 0, 12.40653, 0.1539746, -0.07098816, -0.6453354, 1117, 0, 0, 0
1, 0.4406365, 0.03054458, 0.02565614, -0.4603669, -0.02560551, 0, 0, -0.6169268, 0, 0, 0.0008558098, 0.0005879267, 0.0002118561
2, 16, 0, 4.635054, 5.545059, -57.01104, 2.13865, 3.169265, 0, 0
3, 165, 0, 0, 0, 12.40653, 0.1539746, -0.02560551, -0.6169268, 1116, 0, 0, 0
1, 0.4604321, 0.030682, 0.02572763, -0.4602453, -0.06332444, 0, 0, -0.6423825, 0, 0, 0.0008213476, -0.00032197, 0.0009586926
2, 16, 0, 4.707669, 5.497003, -56.99896, 2.188729, 3.168985, 0, 0
3, 165, 0, 0, 0, 12.47353, 0.1565614, -0.06332444, -0.6423825, 1116, 0, 0, 0
1, 0.4604321, 0.03085682, 0.02572823, -0.4601227, -0.0171396, 0, 0, -0.6140397, 0, 0, 0.0007454609, 2.681367E-05, 0.0006090215
2, 16, 0, 4.679803, 5.556372, -56.99036, 2.168107, 3.192639, 0, 0
3, 166, 0, 0, 0, 12.47353, 0.1565614, -0.0171396, -0.6140397, 1117, 0, 0, 0
1, 0.4777844, 0.03086788, 0.02583931, -0.4599126, -0.05479321, 0, 0, -0.6406072, 0, 0, 0.001109709, 0.00020681, 0.001131898
2, 16, 0, 4.741627, 5.572764, -56.93261, 2.208228, 3.196647, 0, 0
3, 166, 0, 0, 0, 12.40382, 0.1575756, -0.05479321, -0.6406072, 1116, 0, 0, 0
1, 0.4777844, 0.0309779, 0.02597089, -0.4597085, -0.01631687, 0, 0, -0.6176966, 0, 0, -5.541908E-05, -6.547885E-05, 0.0005546903
2, 16, 0, 4.719135, 5.570785, -57.00867, 2.185013, 3.20369, 0, 0
3, 167, 0, 0, 0, 12.40382, 0.1575756, -0.01631687, -0.6176966, 1116, 0, 0, 0
1, 0.4918612, 0.03102397, 0.02607034, -0.4595249, -0.05412339, 0, 0, -0.643854, 0, 0, 0.0005947042, 0.0006846755, 0.0012722
2, 16, 0, 4.794437, 5.639089, -56.92934, 2.235678, 3.220408, 0, 0
3, 167, 0, 0, 0, 12.4219, 0.1590552, -0.05412339, -0.643854, 1116, 0, 0, 0
1, 0.4918612, 0.03121387, 0.02601871, -0.4593021, -0.003135401, 0, 0, -0.6130833, 0, 0, 0.001357903, 0.0006323376, 0.0004957552
2, 16, 0, 4.723029, 5.669084, -56.83532, 2.185494, 3.239235, 0, 0
3, 168, 0, 0, 0, 12.4219, 0.1590552, -0.003135401, -0.6130833, 1116, 0, 0, 0
1, 0.5027324, 0.0313788, 0.02602383, -0.4590066, -0.04075296, 0, 0, -0.6400862, 0, 0, 0.0004290087, 0.0003385788, 0.0007678153
2, 16, 0, 4.745715, 5.675271, -56.8795, 2.202002, 3.251626, 0, 0
3, 168, 0, 0, 0, 12.43447, 0.1605402, -0.04075296, -0.6400862, 1117, 0, 0, 0
1, 0.5027324, 0.03138755, 0.02610122, -0.4588617, -0.00923499, 0, 0, -0.6215751, 0, 0, 0.00199693, 0.0004236561, 0.0003401753
2, 16, 0, 4.725434, 5.683651, -56.72512, 2.183137, 3.253883, 0, 0
3, 169, 0, 0, 0, 12.43447, 0.1605402, -0.00923499, -0.6215751, 1116, 0, 0, 0
1, 0.5060261, 0.03147139, 0.02616253, -0.4587295, -0.04729512, 0, 0, -0.6480324, 0, 0, 0.0002215279, -2.158281E-05, 0.0002341215
2, 16, 0, 4.727985, 5.663124, -56.86318, 2.18195, 3.255463, 0, 0
3, 169, 0, 0, 0, 12.3993, 0.1616384, -0.04729512, -0.6480324, 1116, 0, 0, 0
1, 0.5060261, 0.03157417, 0.02619498, -0.4585748, -0.005679144, 0, 0, -0.6235217, 0, 0, 7.704617E-05, -0.0001514792, 0.0006602058
2, 17, 0, 4.767913, 5.671233, -56.85657, 2.209831, 3.264031, 0, 0
3, 170, 0, 0, 0, 12.3993, 0.1616384, -0.005679144, -0.6235217, 1116, 0, 0, 0
1, 0.5083624, 0.03161244, 0.02622817, -0.4584511, -0.04389189, 0, 0, -0.6498854, 0, 0, 0.001310754, 0.0001359224, 0.000220089
2, 17, 0, 4.738678, 5.701112, -56.7339, 2.186562, 3.27257, 0, 0
3, 170, 0, 0, 0, 12.42552, 0.1642684, -0.04389189, -0.6498854, 1116, 0, 0, 0
1, 0.5083624, 0.03170692, 0.02626117, -0.458221, 0.002925081, 0, 0, -0.6235721, 0, 0, -0.0002470575, 0.0001479819, 0.0002146843
2, 17, 0, 4.744184, 5.719084, -56.8409, 2.188978, 3.282542, 0, 0
3, 171, 0, 0, 0, 12.42552, 0.1642684, 0.002925081, -0.6235721, 1116, 0, 0, 0
1, 0.5105492, 0.03182553, 0.02629892, -0.4579969, -0.03522192, 0, 0, -0.6491501, 0, 0, 0.0009406462, 7.821189E-05, 0.0004537805
2, 17, 0, 4.770108, 5.734853, -56.70977, 2.206244, 3.293706, 0, 0
3, 171, 0, 0, 0, 12.41738, 0.1652816, -0.03522192, -0.6491501, 1116, 0, 0, 0
1, 0.5105492, 0.03184966, 0.02634523, -0.4578206, -0.01034436, 0, 0, -0.6361579, 0, 0, 0.0009957103, -0.0009619833, 0.0007792342
2, 17, 0, 4.80448, 5.655981, -56.68313, 2.229324, 3.279623, 0, 0
3, 172, 0, 0, 0, 12.41738, 0.1652816, -0.01034436, -0.6361579, 1116, 0, 0, 0
1, 0.5056394, 0.03186274, 0.02640958, -0.457611, -0.04929383, 0, 0, -0.662989, 0, 0, 0.001370959, -1.69082E-05, 0.0008195115
2, 17, 0, 4.819284, 5.73394, -56.62449, 2.237041, 3.296034, 0, 0
3, 172, 0, 0, 0, 12.38664, 0.1670152, -0.04929383, -0.662989, 1116, 0, 0, 0
1, 0.5056394, 0.03200687, 0.02643827, -0.4574619, -0.007738487, 0, 0, -0.6387953, 0, 0, 0.0007542423, 0.0001023977, 0.000592122
2, 17, 0, 4.806258, 5.769428, -56.65966, 2.225976, 3.312855, 0, 0
3, 173, 0, 0, 0, 12.38664, 0.1670152, -0.007738487, -0.6387953, 1117, 0, 0, 0
1, 0.5040228, 0.03210385, 0.02643354, -0.4572267, -0.04686572, 0, 0, -0.6646696, 0, 0, 0.0009537821, 0.0005974601, 0.0005584767
2, 17, 0, 4.802716, 5.826489, -56.61313, 2.223595, 3.330786, 0, 0
3, 173, 0, 0, 0, 12.44016, 0.1682321, -0.04686572, -0.6646696, 1116, 0, 0, 0
1, 0.5040228, 0.0321711, 0.02641273, -0.4569779, -0.002296091, 0, 0, -0.640029, 0, 0, 0.001522261, -0.0006250403, 0.0004473028
2, 17, 0, 4.790077, 5.740794, -56.53282, 2.215297, 3.318264, 0, 0
3, 174, 0, 0, 0, 12.44016, 0.1682321, -0.002296091, -0.640029, 1116, 0, 0, 0
1, 0.510201, 0.03222085, 0.0264151, -0.4567152, -0.04147362, 0, 0, -0.6674659, 0, 0, 0.0007464645, 0.0006331834, 0.0003476671
2, 17, 0, 4.782531, 5.850408, -56.56774, 2.209603, 3.343469, 0, 0
3, 174, 0, 0, 0, 12.43817, 0.1705062, -0.04147362, -0.6674659, 1116, 0, 0, 0
1, 0.510201, 0.03231376, 0.02648071, -0.4565035, -0.006234589, 0, 0, -0.646919, 0, 0, 0.0009688779, 4.70946E-05, 0.001086777
2, 17, 0, 4.853471, 5.820244, -56.52214, 2.25874, 3.343742, 0, 0
3, 175, 0, 0, 0, 12.43817, 0.1705062, -0.006234589, -0.646919, 1116, 0, 0, 0
1, 0.5162015, 0.03242452, 0.02654625, -0.456265, -0.04578984, 0, 0, -0.6716408, 0, 0, -0.0001239686, 0.0001275362, 0.0004923432
2, 17, 0, 4.817712, 5.846617, -56.58765, 2.22903, 3.356487, 0, 0
3, 175, 0, 0, 0, 12.41015, 0.1720471, -0.04578984, -0.6716408, 1116, 0, 0, 0
1, 0.5162015, 0.03247684, 0.02659935, -0.4559695, -0.006512794, 0, 0, -0.6498062, 0, 0, 0.0007083313, -0.0001004041, 0.001215129
2, 17, 0, 4.885094, 5.837799, -56.47858, 2.276165, 3.358266, 0, 0
3, 176, 0, 0, 0, 12.41015, 0.1720471, -0.006512794, -0.6498062, 1116, 0, 0, 0
1, 0.514637, 0.03252482, 0.02660491, -0.4556838, -0.04626338, 0, 0, -0.6749565, 0, 0, 0.0001998546, 0.0004730225, 0.000351454
2, 17, 0, 4.817, 5.89231, -56.48741, 2.225564, 3.372373, 0, 0
3, 176, 0, 0, 0, 12.4304, 0.1729749, -0.04626338, -0.6749565, 1117, 0, 0, 0
1, 0.514637, 0.03269503, 0.0265892, -0.4554702, -0.02508665, 0, 0, -0.6634091, 0, 0, 0.0008096762, -0.0005676305, 0.0008561381
2, 17, 0, 4.854547, 5.839695, -56.40786, 2.254099, 3.373409, 0, 0
3, 177, 0, 0, 0, 12.4304, 0.1729749, -0.02508665, -0.6634091, 1116, 0, 0, 0
1, 0.5096447, 0.0327461, 0.02668759, -0.4552555, -0.06554621, 0, 0, -0.6887644, 0, 0, 0.000638571, 1.138397E-05, 0.000321646
2, 17, 0, 4.829498, 5.895209, -56.39613, 2.230657, 3.387918, 0, 0
3, 177, 0, 0, 0, 12.41919, 0.1746426, -0.06554621, -0.6887644, 1117, 0, 0, 0
1, 0.5096447, 0.03273638, 0.02675266, -0.4550447, -0.01285022, 0, 0, -0.6591569, 0, 0, 0.0008599056, 0.00105863, -3.605029E-05
2, 17, 0, 4.812595, 5.97724, -56.35074, 2.214904, 3.4036, 0, 0
3, 178, 0, 0, 0, 12.41919, 0.1746426, -0.01285022, -0.6591569, 1116, 0, 0, 0
1, 0.5171409, 0.0327766, 0.02674511, -0.4548163, -0.05312932, 0, 0, -0.6840379, 0, 0, 0.001152956, 0.0006481438, 0.0002266061
2, 17, 0, 4.832247, 5.95164, -56.29692, 2.229807, 3.401222, 0, 0
3, 178, 0, 0, 0, 12.36937, 0.1755282, -0.05312932, -0.6840379, 1116, 0, 0, 0
1, 0.5171409, 0.03288044, 0.02676142, -0.4544238, -0.01108555, 0, 0, -0.660795, 0, 0, 0.0004584979, 0.0004104277, 3.569904E-05
2, 17, 0, 4.819911, 5.951314, -56.30865, 2.219872, 3.408182, 0, 0
3, 179, 0, 0, 0, 12.36937, 0.1755282, -0.01108555, -0.660795, 1116, 0, 0, 0
1, 0.532524, 0.03303468, 0.02673623, -0.4542508, -0.05145744, 0, 0, -0.6861605, 0, 0, 0.0001451893, -0.0003060103, 0.0008694699
2, 17, 0, 4.882079, 5.921762, -56.31447, 2.267078, 3.412733, 0, 0
3, 179, 0, 0, 0, 12.40291, 0.1772784, -0.05145744, -0.6861605, 1116, 0, 0, 0
1, 0.532524, 0.03312451, 0.02678444, -0.4538877, -0.01476469, 0, 0, -0.6675121, 0, 0, 0.0007158081, 0.0002271022, 0.0008130423
2, 18, 0, 4.886243, 5.98058, -56.2198, 2.267739, 3.430527, 0, 0
3, 180, 0, 0, 0, 12.40291, 0.1772784, -0.01476469, -0.6675121, 1116, 0, 0, 0
1, 0.5420763, 0.03312886, 0.02686507, -0.45362, -0.05554119, 0, 0, -0.6915658, 0, 0, 0.0006824477, 0.0001978054, 0.0005525763
2, 18, 0, 4.879919, 5.979019, -56.1895, 2.259025, 3.430505, 0, 0
3, 180, 0, 0, 0, 12.41006, 0.1782051, -0.05554119, -0.6915658, 1116, 0, 0, 0
1, 0.5420763, 0.03317932, 0.02695533, -0.4534714, -0.01914137, 0, 0, -0.6720124, 0, 0, 0.0007755848, 7.630455E-05, 0.001190271
2, 18, 0, 4.94718, 5.978383, -56.16298, 2.30421, 3.433787, 0, 0
3, 181, 0, 0, 0, 12.41006, 0.1782051, -0.01914137, -0.6720124, 1116, 0, 0, 0
1, 0.5423766, 0.03319786, 0.027011, -0.4532908, -0.06023179, 0, 0, -0.698812, 0, 0, 0.0002672614, -0.0003192259, 0.0004701849
2, 18, 0, 4.899594, 5.950077, -56.18481, 2.266253, 3.429398, 0, 0
3, 181, 0, 0, 0, 12.43727, 0.1806206, -0.06023179, -0.698812, 1116, 0, 0, 0
1, 0.5423766, 0.03329635, 0.02710723, -0.4530454, -0.031408, 0, 0, -0.6842006, 0, 0, 0.001225276, 0.0003646057, 0.0005892179
2, 18, 0, 4.926438, 6.022511, -56.07103, 2.281269, 3.450488, 0, 0
3, 182, 0, 0, 0, 12.43727, 0.1806206, -0.031408, -0.6842006, 1116, 0, 0, 0
1, 0.5420748, 0.03341563, 0.02714455, -0.452809, -0.0732173, 0, 0, -0.7101151, 0, 0, 0.000528962, 6.026636E-06, 0.001012079
2, 18, 0, 4.966985, 6.015295, -56.10229, 2.309364, 3.457119, 0, 0
3, 182, 0, 0, 0, 12.42371, 0.181907, -0.0732173, -0.7101151, 1116, 0, 0, 0
1, 0.5420748, 0.03347547, 0.02724764, -0.452586, -0.01960416, 0, 0, -0.6811941, 0, 0, 0.0006616197, -0.0003369711, 0.0004630466
2, 18, 0, 4.941619, 5.998626, -56.0631, 2.285451, 3.45784, 0, 0
3, 183, 0, 0, 0, 12.42371, 0.181907, -0.01960416, -0.6811941, 1117, 0, 0, 0
1, 0.551912, 0.03342645, 0.02726162, -0.4524707, -0.06125436, 0, 0, -0.707761, 0, 0, 0.0001154594, 0.0008240247, 0.000564162
2, 18, 0, 4.952225, 6.082683, -56.09633, 2.292589, 3.47127, 0, 0
3, 183, 0, 0, 0, 12.3832, 0.1832953, -0.06125436, -0.707761, 1116, 0, 0, 0
1, 0.551912, 0.03347944, 0.0272655, -0.4522375, -0.02498854, 0, 0, -0.6894577, 0, 0, 0.001150782, -0.0003780145, 0.001193636
2, 18, 0, 5.00328, 5.996058, -55.97733, 2.330127, 3.457596, 0, 0
3, 184, 0, 0, 0, 12.3832, 0.1832953, -0.02498854, -0.6894577, 1117, 0, 0, 0
1, 0.5607983, 0.03361049, 0.02730039, -0.452126, -0.06707551, 0, 0, -0.7141422, 0, 0, 0.0003159429, 0.0002156241, 7.560824E-05
2, 18, 0, 4.920119, 6.067137, -56.03614, 2.266918, 3.480624, 0, 0
3, 184, 0, 0, 0, 12.38573, 0.1848165, -0.06707551, -0.7141422, 1116, 0, 0, 0
1, 0.5607983, 0.03378503, 0.02727903, -0.4518667, -0.03435325, 0, 0, -0.6974509, 0, 0, 0.0008486194, 0.0007106994, 0.0003668159
2, 18, 0, 4.939571, 6.138161, -55.95765, 2.282365, 3.506587, 0, 0
3, 185, 0, 0, 0, 12.38573, 0.1848165, -0.03435325, -0.6974509, 1116, 0, 0, 0
1, 0.5637061, 0.03388661, 0.02726463, -0.4516957, -0.07699103, 0, 0, -0.7242443, 0, 0, -8.833605E-05, 0.0001018003, 0.0003101334
2, 18, 0, 4.932444, 6.107733, -56.01796, 2.277819, 3.507399, 0, 0
3, 185, 0, 0, 0, 12.40924, 0.1859215, -0.07699103, -0.7242443, 1117, 0, 0, 0
1, 0.5637061, 0.03392198, 0.027304, -0.4515409, -0.03166806, 0, 0, -0.7005385, 0, 0, 0.0009389132, 0.0007904741, 0.0007918446
2, 18, 0, 4.978068, 6.169194, -55.90939, 2.309565, 3.522036, 0, 0
3, 186, 0, 0, 0, 12.40924, 0.1859215, -0.03166806, -0.7005385, 1116, 0, 0, 0
1, 0.5677668, 0.03342853, 0.02726949, -0.4513253, -0.0746193, 0, 0, -0.7303051, 0, 0, 0.001820057, -0.03963, -0.01999431
2, 18, 0, 3.308963, 2.846735, -55.80599, 1.077714, 2.826698, 0, 0
3, 186, 0, 0, 0, 12.38754, 0.1889201, -0.0746193, -0.7303051, 1116, 0, 0, 0
1, 0.5677668, 0.03196395, 0.0255375, -0.4511558, -0.04068144, 0, 0, -0.7133474, 0, 0, 0.0009684645, -0.01565202, -0.01447008
2, 18, 0, 3.439143, 4.501349, -55.85907, 1.260836, 3.057373, 0, 0
3, 187, 0, 0, 0, 12.38754, 0.1889201, -0.04068144, -0.7133474, 1116, 0, 0, 0
1, 0.5658975, 0.03248892, 0.02602459, -0.4509642, -0.08414476, 0, 0, -0.7357661, 0, 0, 0.001624627, 0.0309878, 0.02714533
2, 18, 0, 6.856054, 8.32703, -55.77822, 3.761522, 3.855039, 0, 0
3, 187, 0, 0, 0, 12.36946, 0.1899794, -0.08414476, -0.7357661, 1116, 0, 0, 0
1, 0.5658975, 0.03343883, 0.02684075, -0.4507773, -0.05564041, 0, 0, -0.7246277, 0, 0, -0.0009639618, -0.008208886, -0.01145968
2, 18, 0, 3.914561, 5.362279, -55.98025, 1.546821, 3.328598, 0, 0
3, 188, 0, 0, 0, 12.36946, 0.1899794, -0.05564041, -0.7246277, 1116, 0, 0, 0
1, 0.553208, 0.03350433, 0.02678899, -0.4505611, -0.09984767, 0, 0, -0.7505103, 0, 0, 0.001038413, 0.0008733183, 0.005448197
2, 18, 0, 5.257874, 6.100645, -55.77923, 2.542156, 3.480148, 0, 0
3, 188, 0, 0, 0, 12.39459, 0.1916911, -0.09984767, -0.7505103, 1116, 0, 0, 0
1, 0.553208, 0.03308908, 0.02641082, -0.4503732, -0.06895594, 0, 0, -0.7366832, 0, 0, 0.001303229, -0.007678061, -0.003020171
2, 18, 0, 4.512334, 5.341789, -55.73289, 2.010134, 3.300883, 0, 0
3, 189, 0, 0, 0, 12.39459, 0.1916911, -0.06895594, -0.7366832, 1116, 0, 0, 0
1, 0.5410429, 0.03237219, 0.02573378, -0.4501366, -0.1140169, 0, 0, -0.7643437, 0, 0, 0.001947117, -0.05226075, -0.04419528
2, 18, 0, 1.096457, 1.646134, -55.64754, -0.4802623, 2.516156, 0, 0
3, 189, 0, 0, 0, 12.37127, 0.1928724, -0.1140169, -0.7643437, 1116, 0, 0, 0
1, 0.5410429, 0.02951914, 0.02292086, -0.4499988, -0.07229245, 0, 0, -0.74076, 0, 0, 0.001948786, -0.05422742, -0.03921392
2, 19, 0, 0.9886417, 0.9752507, -55.63031, -0.4186473, 2.189693, 0, 0
3, 190, 0, 0, 0, 12.37127, 0.1928724, -0.07229245, -0.74076, 1117, 0, 0, 0
1, 0.5372605, 0.02865821, 0.022346, -0.4498582, -0.1178346, 0, 0, -0.7647444, 0, 0, -0.000683832, 0.02322301, 0.01224736
2, 19, 0, 5.002068, 7.016319, -55.84192, 2.575644, 3.334901, 0, 0
3, 190, 0, 0, 0, 12.41168, 0.1945918, -0.1178346, -0.7647444, 1116, 0, 0, 0
1, 0.5372605, 0.02907128, 0.02261541, -0.4497368, -0.0848225, 0, 0, -0.750291, 0, 0, 0.001099978, -0.02809842, -0.02465381
2, 19, 0, 2.098469, 2.984956, -55.67167, 0.4167496, 2.559756, 0, 0
3, 191, 0, 0, 0, 12.41168, 0.1945918, -0.0848225, -0.750291, 1116, 0, 0, 0
1, 0.5333002, 0.02714195, 0.02071421, -0.4496267, -0.1305378, 0, 0, -0.7752258, 0, 0, 0.001842369, -0.03976322, -0.03257008
2, 19, 0, 1.122951, 1.704494, -55.59342, -0.2086353, 2.17429, 0, 0
3, 191, 0, 0, 0, 12.3794, 0.1960285, -0.1305378, -0.7752258, 1116, 0, 0, 0
1, 0.5333002, 0.02621608, 0.01972141, -0.4493456, -0.1020144, 0, 0, -0.7588905, 0, 0, 0.0008603299, -0.01112928, -0.007155839
2, 19, 0, 2.977387, 3.828551, -55.64401, 1.211238, 2.53479, 0, 0
3, 192, 0, 0, 0, 12.3794, 0.1960285, -0.1020144, -0.7588905, 1116, 0, 0, 0
1, 0.5271106, 0.025784, 0.01953293, -0.4491162, -0.148307, 0, 0, -0.7844615, 0, 0, 0.00191759, -0.01846209, -0.01386515
2, 19, 0, 2.406715, 3.164152, -55.52357, 0.7990698, 2.373237, 0, 0
3, 192, 0, 0, 0, 12.40924, 0.1969165, -0.148307, -0.7844615, 1116, 0, 0, 0
1, 0.5271106, 0.02529625, 0.01895969, -0.4489392, -0.1072285, 0, 0, -0.7623003, 0, 0, 8.940158E-05, 0.009157257, 0.008190636
2, 19, 0, 4.067996, 5.285906, -55.66068, 2.055115, 2.762887, 0, 0
3, 193, 0, 0, 0, 12.40924, 0.1969165, -0.1072285, -0.7623003, 1116, 0, 0, 0
1, 0.528849, 0.02632416, 0.01981724, -0.4487146, -0.1536372, 0, 0, -0.7861144, 0, 0, -0.0002839698, 0.008461033, 0.008536332
2, 19, 0, 4.25001, 5.415232, -55.66531, 2.146637, 2.858153, 0, 0
3, 193, 0, 0, 0, 12.41575, 0.1985139, -0.1536372, -0.7861144, 1116, 0, 0, 0
1, 0.528849, 0.02681502, 0.02026348, -0.4485531, -0.1124987, 0, 0, -0.7648801, 0, 0, 0.0003108608, 0.02349503, 0.01678084
2, 19, 0, 4.989894, 6.706306, -55.59354, 2.670922, 3.148518, 0, 0
3, 194, 0, 0, 0, 12.41575, 0.1985139, -0.1124987, -0.7648801, 1116, 0, 0, 0
1, 0.5396723, 0.02789184, 0.02098929, -0.4483753, -0.1591373, 0, 0, -0.7897555, 0, 0, 0.000683492, 0.0005568396, -0.004883125
2, 19, 0, 3.387422, 5.065077, -55.53908, 1.450641, 2.89441, 0, 0
3, 194, 0, 0, 0, 12.40562, 0.1994012, -0.1591373, -0.7897555, 1116, 0, 0, 0
1, 0.5396723, 0.02707598, 0.01998682, -0.4482305, -0.1171008, 0, 0, -0.7676578, 0, 0, 0.001156829, -0.001050934, -0.001879342
2, 19, 0, 3.44728, 4.789602, -55.47994, 1.545095, 2.784383, 0, 0
3, 195, 0, 0, 0, 12.40562, 0.1994012, -0.1171008, -0.7676578, 1116, 0, 0, 0
1, 0.5505934, 0.02795443, 0.02081241, -0.4480977, -0.1638563, 0, 0, -0.7921407, 0, 0, 0.002338396, 0.01955985, 0.02012163
2, 19, 0, 5.355965, 6.596586, -55.36067, 2.913921, 3.203716, 0, 0
3, 195, 0, 0, 0, 12.42307, 0.2012281, -0.1638563, -0.7921407, 1116, 0, 0, 0
1, 0.5505934, 0.02850094, 0.0212966, -0.4479161, -0.129486, 0, 0, -0.7750352, 0, 0, 0.001864744, 0.01063734, 0.01044454
2, 19, 0, 4.668952, 5.981155, -55.37937, 2.382086, 3.118084, 0, 0
3, 196, 0, 0, 0, 12.42307, 0.2012281, -0.129486, -0.7750352, 1116, 0, 0, 0
1, 0.5605518, 0.02972692, 0.02239637, -0.4477129, -0.1766084, 0, 0, -0.7968029, 0, 0, 0.0008324935, 0.02868414, 0.02653367
2, 19, 0, 6.154039, 7.645577, -55.44397, 3.424296, 3.532562, 0, 0
3, 196, 0, 0, 0, 12.42732, 0.2020313, -0.1766084, -0.7968029, 1116, 0, 0, 0
1, 0.5605518, 0.03145499, 0.02379748, -0.4475586, -0.1254917, 0, 0, -0.7723123, 0, 0, 0.0005100244, 0.03484006, 0.02573554
2, 19, 0, 6.34239, 8.449103, -55.45289, 3.493359, 3.809525, 0, 0
3, 197, 0, 0, 0, 12.42732, 0.2020313, -0.1254917, -0.7723123, 1116, 0, 0, 0
1, 0.5757074, 0.03280365, 0.02469006, -0.4473056, -0.172792, 0, 0, -0.7991437, 0, 0, 0.0001028439, 0.01144304, -0.005764375
2, 19, 0, 3.983061, 6.820101, -55.45695, 1.70527, 3.576207, 0, 0
3, 197, 0, 0, 0, 12.44902, 0.2033474, -0.172792, -0.7991437, 1116, 0, 0, 0
1, 0.5757074, 0.03309541, 0.02460635, -0.4469913, -0.1307507, 0, 0, -0.7783812, 0, 0, 0.002537896, 0.02634462, 0.0250388
2, 19, 0, 6.432247, 8.064744, -55.20612, 3.519309, 3.843915, 0, 0
3, 198, 0, 0, 0, 12.44902, 0.2033474, -0.1307507, -0.7783812, 1116, 0, 0, 0
1, 0.5878743, 0.03484416, 0.02610278, -0.4468377, -0.1780969, 0, 0, -0.8032521, 0, 0, 0.001188604, 0.01851689, 0.01891602
2, 19, 0, 6.211782, 7.753301, -55.30447, 3.28148, 3.900152, 0, 0
3, 198, 0, 0, 0, 12.40599, 0.2045641, -0.1780969, -0.8032521, 1116, 0, 0, 0
1, 0.5878743, 0.03492546, 0.02615461, -0.446665, -0.1419285, 0, 0, -0.7860273, 0, 0, 0.001352582, -0.004830364, -0.003536694
2, 19, 0, 4.424893, 5.900154, -55.26879, 1.958358, 3.536415, 0, 0
3, 199, 0, 0, 0, 12.40599, 0.2045641, -0.1419285, -0.7860273, 1116, 0, 0, 0
1, 0.5907015, 0.03503953, 0.02626321, -0.4465351, -0.189821, 0, 0, -0.8105623, 0, 0, 0.0003648637, 0.001473145, 0.00243019
2, 19, 0, 4.921792, 6.424966, -55.3386, 2.320129, 3.648696, 0, 0
3, 199, 0, 0, 0, 12.39387, 0.2054525, -0.189821, -0.8105623, 1117, 0, 0, 0
1, 0.5907015, 0.03503095, 0.02634886, -0.4463722, -0.1455253, 0, 0, -0.7891565, 0, 0, 0.0002697096, 0.001663871, 0.003407239
2, 20, 0, 5.015374, 6.438681, -55.32669, 2.384995, 3.650843, 0, 0
3, 200, 0, 0, 0, 12.39387, 0.2054525, -0.1455253, -0.7891565, 1116, 0, 0, 0
1, 0.5926704, 0.035064, 0.0264223, -0.4461266, -0.1935878, 0, 0, -0.8137851, 0, 0, 0.0003135767, -2.421187E-05, 0.0006844384
2, 20, 0, 4.810769, 6.309583, -55.29241, 2.23011, 3.627351, 0, 0
3, 200, 0, 0, 0, 12.38157, 0.2071638, -0.1935878, -0.8137851, 1116, 0, 0, 0
1, 0.5926704, 0.03511335, 0.02651521, -0.4459102, -0.1495332, 0, 0, -0.791904, 0, 0, 0.001107924, 0.000458008, 0.001196905
2, 20, 0, 4.86849, 6.357044, -55.19647, 2.268111, 3.640141, 0, 0
3, 201, 0, 0, 0, 12.38157, 0.2071638, -0.1495332, -0.791904, 1117, 0, 0, 0
1, 0.6002374, 0.03515832, 0.02655068, -0.4456884, -0.1977242, 0, 0, -0.8161376, 0, 0, 0.001083549, 0.001219348, 0.001509657
2, 20, 0, 4.899895, 6.426046, -55.17109, 2.289543, 3.656932, 0, 0
3, 201, 0, 0, 0, 12.32968, 0.2079786, -0.1977242, -0.8161376, 1116, 0, 0, 0
1, 0.6002374, 0.03512363, 0.02665978, -0.4455564, -0.1475803, 0, 0, -0.7917613, 0, 0, 0.0006693858, 0.001010632, 0.001434544
2, 20, 0, 4.913525, 6.403104, -55.19075, 2.294148, 3.650005, 0, 0
3, 202, 0, 0, 0, 12.32968, 0.2079786, -0.1475803, -0.7917613, 1117, 0, 0, 0
1, 0.6076643, 0.03523648, 0.02675441, -0.4454015, -0.1958624, 0, 0, -0.8177356, 0, 0, 2.253099E-06, 0.000879287, 0.0007678758
2, 20, 0, 4.877223, 6.412909, -55.2296, 2.262578, 3.659591, 0, 0
3, 202, 0, 0, 0, 12.32705, 0.2100796, -0.1958624, -0.8177356, 1116, 0, 0, 0
1, 0.6076643, 0.0352794, 0.02675742, -0.4452012, -0.1621528, 0, 0, -0.8010287, 0, 0, 0.0014872, 0.0002055472, 0.0002612417
2, 20, 0, 4.837234, 6.366735, -55.07556, 2.232875, 3.653295, 0, 0
3, 203, 0, 0, 0, 12.32705, 0.2100796, -0.1621528, -0.8010287, 1116, 0, 0, 0
1, 0.6065248, 0.03530211, 0.02681868, -0.4449779, -0.2109461, 0, 0, -0.8256374, 0, 0, 0.001095084, 0.0003983518, 0.0003028302
2, 20, 0, 4.851589, 6.386247, -55.08199, 2.240413, 3.658715, 0, 0
3, 203, 0, 0, 0, 12.44179, 0.2107662, -0.2109461, -0.8256374, 1116, 0, 0, 0
1, 0.6065248, 0.03533004, 0.0268036, -0.4446673, -0.1668445, 0, 0, -0.8050746, 0, 0, 0.0009932269, 0.000650068, 0.001349514
2, 20, 0, 4.93261, 6.411413, -55.05233, 2.301045, 3.665621, 0, 0
3, 204, 0, 0, 0, 12.44179, 0.2107662, -0.1668445, -0.8050746, 1116, 0, 0, 0
1, 0.5977582, 0.03537989, 0.02685514, -0.4444518, -0.2158011, 0, 0, -0.8283453, 0, 0, 0.0005189729, 0.001719887, 0.0005112955
2, 20, 0, 4.874829, 6.505972, -55.06687, 2.255761, 3.687833, 0, 0
3, 204, 0, 0, 0, 12.3342, 0.212393, -0.2158011, -0.8283453, 1116, 0, 0, 0
1, 0.5977582, 0.03532464, 0.02689883, -0.4441533, -0.1832585, 0, 0, -0.8136734, 0, 0, 0.0008096017, -0.0002883975, 0.001180518
2, 20, 0, 4.93623, 6.335363, -55.00458, 2.298949, 3.650096, 0, 0
3, 205, 0, 0, 0, 12.3342, 0.212393, -0.1832585, -0.8136734, 1116, 0, 0, 0
1, 0.5858612, 0.03547003, 0.02692169, -0.4439138, -0.2327809, 0, 0, -0.8383443, 0, 0, 0.0008076498, 0.0007366308, 0.001309308
2, 20, 0, 4.950648, 6.443537, -54.97504, 2.308459, 3.681489, 0, 0
3, 205, 0, 0, 0, 12.45237, 0.2134705, -0.2327809, -0.8383443, 1116, 0, 0, 0
1, 0.5858612, 0.03559615, 0.02690523, -0.4436787, -0.188167, 0, 0, -0.8170764, 0, 0, 0.0002022066, 0.0004305112, 0.000412186
2, 20, 0, 4.875916, 6.441749, -54.99857, 2.254054, 3.689669, 0, 0
3, 206, 0, 0, 0, 12.45237, 0.2134705, -0.188167, -0.8170764, 1116, 0, 0, 0
1, 0.5790027, 0.03569808, 0.02696072, -0.4435164, -0.2379177, 0, 0, -0.8423036, 0, 0, 0.001152242, 0.000228565, 0.0008692213
2, 20, 0, 4.922467, 6.44394, -54.89579, 2.285676, 3.697, 0, 0
3, 206, 0, 0, 0, 12.42642, 0.2144706, -0.2379177, -0.8423036, 1116, 0, 0, 0
1, 0.5790027, 0.03581848, 0.02691084, -0.4433355, -0.1950001, 0, 0, -0.821569, 0, 0, 0.001551898, 0.0008712902, 0.0004874069
2, 20, 0, 4.882944, 6.517029, -54.83859, 2.258967, 3.719716, 0, 0
3, 207, 0, 0, 0, 12.42642, 0.2144706, -0.1950001, -0.821569, 1116, 0, 0, 0
1, 0.5796444, 0.03581863, 0.02696034, -0.4431911, -0.2450918, 0, 0, -0.8460106, 0, 0, 0.000966421, -3.785573E-06, 0.001478578
2, 20, 0, 4.971147, 6.44705, -54.87162, 2.321671, 3.705778, 0, 0
3, 207, 0, 0, 0, 12.39622, 0.217213, -0.2450918, -0.8460106, 1116, 0, 0, 0
1, 0.5796444, 0.03578909, 0.0270867, -0.4430079, -0.202002, 0, 0, -0.826057, 0, 0, 0.0003596676, 0.000305658, 0.001310217
2, 20, 0, 4.980423, 6.466488, -54.90168, 2.322195, 3.707644, 0, 0
3, 208, 0, 0, 0, 12.39622, 0.217213, -0.202002, -0.826057, 1116, 0, 0, 0
1, 0.5882396, 0.03579376, 0.02719649, -0.4428428, -0.2522272, 0, 0, -0.8485543, 0, 0, 0.0008633191, 4.794847E-05, 0.0009682226
2, 20, 0, 4.972826, 6.446712, -54.83739, 2.311078, 3.704011, 0, 0
3, 208, 0, 0, 0, 12.41286, 0.2180047, -0.2522272, -0.8485543, 1116, 0, 0, 0
1, 0.5882396, 0.03584851, 0.02723829, -0.442578, -0.1983211, 0, 0, -0.825587, 0, 0, 0.0004782125, -0.0002815836, 0.001068045
2, 20, 0, 4.988335, 6.430206, -54.83806, 2.320445, 3.704426, 0, 0
3, 209, 0, 0, 0, 12.41286, 0.2180047, -0.1983211, -0.825587, 1116, 0, 0, 0
1, 0.6040441, 0.03592275, 0.0272536, -0.4424074, -0.248416, 0, 0, -0.8486612, 0, 0, 0.0003906847, 0.0004272518, 0.001081941
2, 20, 0, 4.992203, 6.500275, -54.82452, 2.322536, 3.723411, 0, 0
3, 209, 0, 0, 0, 12.43853, 0.2199342, -0.248416, -0.8486612, 1117, 0, 0, 0
1, 0.6040441, 0.03601035, 0.02730611, -0.4422958, -0.2064634, 0, 0, -0.8295624, 0, 0, 0.0009053788, -0.0002846153, 0.0003833288
2, 21, 0, 4.945766, 6.459094, -54.76591, 2.285586, 3.721131, 0, 0
3, 210, 0, 0, 0, 12.43853, 0.2199342, -0.2064634, -0.8295624, 1116, 0, 0, 0
1, 0.6194811, 0.036082, 0.02731313, -0.4421004, -0.2569341, 0, 0, -0.8527865, 0, 0, 5.298403E-05, 0.0005152992, 0.0008339174
2, 21, 0, 4.983078, 6.535985, -54.81584, 2.312809, 3.741301, 0, 0
3, 210, 0, 0, 0, 12.43998, 0.2208928, -0.2569341, -0.8527865, 1116, 0, 0, 0
1, 0.6194811, 0.03609458, 0.02739395, -0.4418954, -0.2050724, 0, 0, -0.8294203, 0, 0, 0.000664871, 0.0006095908, 0.0002274399
2, 21, 0, 4.949106, 6.545791, -54.73719, 2.283653, 3.744101, 0, 0
3, 211, 0, 0, 0, 12.43998, 0.2208928, -0.2050724, -0.8294203, 1116, 0, 0, 0
1, 0.630642, 0.0361318, 0.02744278, -0.4417232, -0.2555236, 0, 0, -0.8537026, 0, 0, 0.0006461071, 0.0005388985, 0.001745066
2, 21, 0, 5.079306, 6.546836, -54.71747, 2.377429, 3.746825, 0, 0
3, 211, 0, 0, 0, 12.36856, 0.2234304, -0.2555236, -0.8537026, 1116, 0, 0, 0
1, 0.630642, 0.03608506, 0.02739747, -0.4415493, -0.2148323, 0, 0, -0.8335029, 0, 0, 0.001251554, 0.000571695, 4.350543E-05
2, 21, 0, 4.935025, 6.541047, -54.64323, 2.27307, 3.742511, 0, 0
3, 212, 0, 0, 0, 12.36856, 0.2234304, -0.2148323, -0.8335029, 1116, 0, 0, 0
1, 0.6356419, 0.03608041, 0.02741188, -0.4413085, -0.2655228, 0, 0, -0.8564988, 0, 0, 0.0008135644, 8.248787E-05, 0.000985692
2, 21, 0, 5.012993, 6.501073, -54.65147, 2.32997, 3.73423, 0, 0
3, 212, 0, 0, 0, 12.41738, 0.2249159, -0.2655228, -0.8564988, 1116, 0, 0, 0
1, 0.6356419, 0.03619978, 0.0273682, -0.4411245, -0.216753, 0, 0, -0.8329044, 0, 0, 0.0006914496, 0.0006483353, 0.001342166
2, 21, 0, 5.033649, 6.567827, -54.63928, 2.347425, 3.755613, 0, 0
3, 213, 0, 0, 0, 12.41738, 0.2249159, -0.216753, -0.8329044, 1116, 0, 0, 0
1, 0.6348158, 0.03622113, 0.02744694, -0.4409981, -0.2673942, 0, 0, -0.855422, 0, 0, 0.0008743281, -0.000484455, 0.0006784906
2, 21, 0, 4.99473, 6.481047, -54.6077, 2.314714, 3.739761, 0, 0
3, 213, 0, 0, 0, 12.44541, 0.2261819, -0.2673942, -0.855422, 1116, 0, 0, 0
1, 0.6348158, 0.03616447, 0.02747516, -0.4408377, -0.2270818, 0, 0, -0.8377354, 0, 0, 0.0003842936, -0.0006564889, 0.0008544807
2, 21, 0, 5.013887, 6.457085, -54.63044, 2.327459, 3.731149, 0, 0
3, 214, 0, 0, 0, 12.44541, 0.2261819, -0.2270818, -0.8377354, 1116, 0, 0, 0
1, 0.624397, 0.03610258, 0.02749449, -0.4406758, -0.2780164, 0, 0, -0.8605732, 0, 0, 0.0008561473, -5.160703E-05, 0.001028286
2, 21, 0, 5.031271, 6.494336, -54.56932, 2.339338, 3.734382, 0, 0
3, 214, 0, 0, 0, 12.44269, 0.2274946, -0.2780164, -0.8605732, 1116, 0, 0, 0
1, 0.624397, 0.03617321, 0.02760059, -0.4404593, -0.2423567, 0, 0, -0.8438904, 0, 0, 0.0006399974, 0.0002554575, 0.0004253154
2, 21, 0, 5.002131, 6.531614, -54.56127, 2.312485, 3.746583, 0, 0
3, 215, 0, 0, 0, 12.44269, 0.2274946, -0.2423567, -0.8438904, 1116, 0, 0, 0
1, 0.6101861, 0.03614671, 0.02764813, -0.4403031, -0.2936902, 0, 0, -0.8662677, 0, 0, 0.0009013331, -4.243213E-05, 0.001282174
2, 21, 0, 5.079238, 6.503013, -54.51917, 2.367089, 3.739086, 0, 0
3, 215, 0, 0, 0, 12.43528, 0.2281787, -0.2936902, -0.8662677, 1116, 0, 0, 0
1, 0.6101861, 0.03610576, 0.02771418, -0.4401876, -0.2407722, 0, 0, -0.8408403, 0, 0, 0.0005530108, -0.0003165805, 0.0007635354
2, 21, 0, 5.049634, 6.47371, -54.53516, 2.3419, 3.730471, 0, 0
3, 216, 0, 0, 0, 12.43528, 0.2281787, -0.2407722, -0.8408403, 1116, 0, 0, 0
1, 0.6073747, 0.03612204, 0.02777215, -0.4400339, -0.2918962, 0, 0, -0.8648727, 0, 0, 0.000762623, 0.001089423, 0.0007138369
2, 21, 0, 5.056093, 6.589122, -54.49786, 2.343769, 3.754567, 0, 0
3, 216, 0, 0, 0, 12.37669, 0.2310078, -0.2918962, -0.8648727, 1116, 0, 0, 0
1, 0.6073747, 0.0361449, 0.02785441, -0.43991, -0.2453135, 0, 0, -0.8434015, 0, 0, 0.0008714796, 0.0002311065, 0.001231985
2, 21, 0, 5.112353, 6.524571, -54.47302, 2.381226, 3.743245, 0, 0
3, 217, 0, 0, 0, 12.37669, 0.2310078, -0.2453135, -0.8434015, 1116, 0, 0, 0
1, 0.6120685, 0.03607082, 0.02786149, -0.4396947, -0.2965662, 0, 0, -0.8679217, 0, 0, 0.0007654883, 0.0005070897, 0.001684278
2, 21, 0, 5.149811, 6.533314, -54.45555, 2.408555, 3.739973, 0, 0
3, 217, 0, 0, 0, 12.40355, 0.2320364, -0.2965662, -0.8679217, 1116, 0, 0, 0
1, 0.6120685, 0.03598799, 0.0279346, -0.4395844, -0.2517017, 0, 0, -0.8467073, 0, 0, 0.0006547616, -0.0002138104, 0.00160006
2, 21, 0, 5.156232, 6.460734, -54.4515, 2.409637, 3.719899, 0, 0
3, 218, 0, 0, 0, 12.40355, 0.2320364, -0.2517017, -0.8467073, 1116, 0, 0, 0
1, 0.6143343, 0.03597812, 0.02792523, -0.4393333, -0.3031594, 0, 0, -0.8681783, 0, 0, 0.0003986701, -4.716476E-05, 0.0005487868
2, 21, 0, 5.070444, 6.472289, -54.44265, 2.346703, 3.721535, 0, 0
3, 218, 0, 0, 0, 12.34776, 0.2338123, -0.3031594, -0.8681783, 1116, 0, 0, 0
1, 0.6143343, 0.03594944, 0.0279477, -0.439107, -0.2592843, 0, 0, -0.8465765, 0, 0, 0.001237886, 0.001024685, 0.001110492
2, 21, 0, 5.119425, 6.552874, -54.34157, 2.381778, 3.735649, 0, 0
3, 219, 0, 0, 0, 12.34776, 0.2338123, -0.2592843, -0.8465765, 1116, 0, 0, 0
1, 0.6178708, 0.03597445, 0.02808216, -0.4390559, -0.3107245, 0, 0, -0.8689772, 0, 0, 0.0004704931, -2.794157E-05, 0.001481642
2, 21, 0, 5.17332, 6.473165, -54.402, 2.414871, 3.721449, 0, 0
3, 219, 0, 0, 0, 12.41738, 0.2344459, -0.3107245, -0.8689772, 1117, 0, 0, 0
1, 0.6178708, 0.03604, 0.02817356, -0.4389468, -0.2564614, 0, 0, -0.8436161, 0, 0, 0.001625884, -0.0002096123, 0.001249236
2, 22, 0, 5.17118, 6.47043, -54.28795, 2.408709, 3.725333, 0, 0
3, 220, 0, 0, 0, 12.41738, 0.2344459, -0.2564614, -0.8436161, 1116, 0, 0, 0
1, 0.6316476, 0.03600447, 0.02820499, -0.4388676, -0.3076915, 0, 0, -0.8658339, 0, 0, 0.0007412193, 5.988357E-06, 0.0007494282
2, 22, 0, 5.136853, 6.481284, -54.3551, 2.381763, 3.72509, 0, 0
3, 220, 0, 0, 0, 12.43447, 0.2364625, -0.3076915, -0.8658339, 1116, 0, 0, 0
1, 0.6316476, 0.03596726, 0.02829058, -0.4387191, -0.2520513, 0, 0, -0.8402027, 0, 0, 0.0008176434, 0.0007157716, 0.001095161
2, 22, 0, 5.179918, 6.531369, -54.33003, 2.409303, 3.732545, 0, 0
3, 221, 0, 0, 0, 12.43447, 0.2364625, -0.2520513, -0.8402027, 1116, 0, 0, 0
1, 0.6503009, 0.03597558, 0.02836027, -0.4385514, -0.3031202, 0, 0, -0.8624626, 0, 0, 0.0004315229, 0.0002564887, 0.001302654
2, 22, 0, 5.209062, 6.496124, -54.34283, 2.42735, 3.726081, 0, 0
3, 221, 0, 0, 0, 12.43185, 0.2379425, -0.3031202, -0.8624626, 1116, 0, 0, 0
1, 0.6503009, 0.03595327, 0.02838134, -0.4384465, -0.2567721, 0, 0, -0.8420073, 0, 0, 0.001035279, 0.0008960104, 0.0007563484
2, 22, 0, 5.169148, 6.54327, -54.2773, 2.396796, 3.733963, 0, 0
3, 222, 0, 0, 0, 12.43185, 0.2379425, -0.2567721, -0.8420073, 1116, 0, 0, 0
1, 0.6600282, 0.03604865, 0.02838505, -0.4382569, -0.308004, 0, 0, -0.8641537, 0, 0, 0.001427503, 0.0004156717, 0.0001647338
2, 22, 0, 5.122487, 6.52201, -54.21966, 2.362122, 3.736182, 0, 0
3, 222, 0, 0, 0, 12.40517, 0.2390838, -0.308004, -0.8641537, 1116, 0, 0, 0
1, 0.6600282, 0.03615696, 0.02829655, -0.4380668, -0.2615532, 0, 0, -0.8428901, 0, 0, 0.00109965, 0.0002382246, 0.00142721
2, 22, 0, 5.207555, 6.52731, -54.22462, 2.42943, 3.744575, 0, 0
3, 223, 0, 0, 0, 12.40517, 0.2390838, -0.2615532, -0.8428901, 1116, 0, 0, 0
1, 0.6555623, 0.03616117, 0.02831302, -0.4378552, -0.31276, 0, 0, -0.8644039, 0, 0, 0.0007872973, 0.0005297224, 0.001416644
2, 22, 0, 5.209676, 6.551388, -54.22556, 2.430172, 3.749657, 0, 0
3, 223, 0, 0, 0, 12.38845, 0.2407755, -0.31276, -0.8644039, 1116, 0, 0, 0
1, 0.6555623, 0.03624443, 0.02838395, -0.4376092, -0.2733105, 0, 0, -0.8466175, 0, 0, 0.001294138, 0.0004813356, 0.001468926
2, 22, 0, 5.226626, 6.562504, -54.15095, 2.439145, 3.757501, 0, 0
3, 224, 0, 0, 0, 12.38845, 0.2407755, -0.2733105, -0.8466175, 1116, 0, 0, 0
1, 0.6413136, 0.03625879, 0.02841423, -0.4374186, -0.3246583, 0, 0, -0.8664923, 0, 0, 0.0007914756, 0.001185, 0.000614573
2, 22, 0, 5.163728, 6.621383, -54.17104, 2.39114, 3.770204, 0, 0
3, 224, 0, 0, 0, 12.44541, 0.2414945, -0.3246583, -0.8664923, 1116, 0, 0, 0
1, 0.6413136, 0.03631192, 0.02838931, -0.4372497, -0.2773267, 0, 0, -0.8448727, 0, 0, 0.0009347606, 0.000146602, 0.001493571
2, 22, 0, 5.229562, 6.547873, -54.13763, 2.441046, 3.759153, 0, 0
3, 225, 0, 0, 0, 12.44541, 0.2414945, -0.2773267, -0.8448727, 1116, 0, 0, 0
1, 0.6292688, 0.03633078, 0.02845359, -0.437136, -0.3287223, 0, 0, -0.8675698, 0, 0, 0.0002826835, -0.000666008, 0.0005682095
2, 22, 0, 5.167102, 6.48626, -54.18027, 2.391662, 3.748149, 0, 0
3, 225, 0, 0, 0, 12.41006, 0.2427494, -0.3287223, -0.8675698, 1116, 0, 0, 0
1, 0.6292688, 0.0364062, 0.02848322, -0.4369335, -0.2797703, 0, 0, -0.8452102, 0, 0, 0.0007658435, 0.0006876274, 0.0002446747
2, 22, 0, 5.146553, 6.608126, -54.11312, 2.374989, 3.777534, 0, 0
3, 226, 0, 0, 0, 12.41006, 0.2427494, -0.2797703, -0.8452102, 1116, 0, 0, 0
1, 0.6255423, 0.03636837, 0.02849867, -0.4367248, -0.3312096, 0, 0, -0.8681064, 0, 0, 0.001109173, 0.000678205, 0.001153484
2, 22, 0, 5.222039, 6.600563, -54.05738, 2.430006, 3.773465, 0, 0
3, 226, 0, 0, 0, 12.41195, 0.2435113, -0.3312096, -0.8681064, 1116, 0, 0, 0
1, 0.6255423, 0.03644952, 0.02859455, -0.4365607, -0.282541, 0, 0, -0.8449586, 0, 0, 0.001473781, 5.430294E-05, 0.0006640807
2, 22, 0, 5.200146, 6.565258, -54.0053, 2.409019, 3.771915, 0, 0
3, 227, 0, 0, 0, 12.41195, 0.2435113, -0.282541, -0.8449586, 1117, 0, 0, 0
1, 0.6270988, 0.03650761, 0.02865968, -0.4364264, -0.3338908, 0, 0, -0.8682105, 0, 0, 0.0006241416, 0.000232545, 0.001411897
2, 22, 0, 5.271693, 6.589973, -54.06257, 2.458636, 3.780767, 0, 0
3, 227, 0, 0, 0, 12.37488, 0.2456234, -0.3338908, -0.8682105, 1116, 0, 0, 0
1, 0.6270988, 0.03651653, 0.02871421, -0.4362904, -0.2852388, 0, 0, -0.8454299, 0, 0, 0.001051897, 0.0006184961, 0.001420647
2, 22, 0, 5.282209, 6.622455, -54.0085, 2.463676, 3.78784, 0, 0
3, 228, 0, 0, 0, 12.37488, 0.2456234, -0.2852388, -0.8454299, 1116, 0, 0, 0
1, 0.6315964, 0.03655607, 0.02871564, -0.4359965, -0.3366768, 0, 0, -0.8703941, 0, 0, 0.0005169511, -4.002285E-05, 0.0007249987
2, 22, 0, 5.226815, 6.57689, -54.01859, 2.422662, 3.781435, 0, 0
3, 228, 0, 0, 0, 12.4011, 0.2472581, -0.3366768, -0.8703941, 1116, 0, 0, 0
1, 0.6315964, 0.03649689, 0.02879133, -0.4358163, -0.286691, 0, 0, -0.8477405, 0, 0, 0.001031086, -0.0002647523, 0.0005146826
2, 22, 0, 5.223614, 6.548261, -53.95152, 2.416502, 3.77172, 0, 0
3, 229, 0, 0, 0, 12.4011, 0.2472581, -0.286691, -0.8477405, 1116, 0, 0, 0
1, 0.6393441, 0.03660918, 0.02881364, -0.4356147, -0.3382331, 0, 0, -0.8720801, 0, 0, 0.0009697904, 0.001025617, 0.002137569
2, 22, 0, 5.35746, 6.671702, -53.93185, 2.514312, 3.803916, 0, 0
3, 229, 0, 0, 0, 12.44721, 0.2481035, -0.3382331, -0.8720801, 1116, 0, 0, 0
1, 0.6393441, 0.0365857, 0.02880988, -0.4354474, -0.2861721, 0, 0, -0.8479114, 0, 0, 0.001206627, -6.415149E-05, 0.0006003671
2, 23, 0, 5.233808, 6.580294, -53.8905, 2.423107, 3.784112, 0, 0
3, 230, 0, 0, 0, 12.44721, 0.2481035, -0.2861721, -0.8479114, 1116, 0, 0, 0
1, 0.6471388, 0.03657054, 0.02884114, -0.4352333, -0.3376411, 0, 0, -0.8702325, 0, 0, 0.001703677, 0.001166294, 0.0009007721
2, 23, 0, 5.263467, 6.676001, -53.82071, 2.443462, 3.802155, 0, 0
3, 230, 0, 0, 0, 12.38727, 0.2496114, -0.3376411, -0.8702325, 1117, 0, 0, 0
1, 0.6471388, 0.03660544, 0.02895744, -0.4350384, -0.2919781, 0, 0, -0.8502465, 0, 0, 0.001088217, -7.595245E-06, 0.001009294
2, 23, 0, 5.293083, 6.588372, -53.85009, 2.459522, 3.787047, 0, 0
3, 231, 0, 0, 0, 12.38727, 0.2496114, -0.2919781, -0.8502465, 1116, 0, 0, 0
1, 0.6557769, 0.03651695, 0.02901923, -0.4347928, -0.3435995, 0, 0, -0.8739761, 0, 0, 0.001220783, -0.0001568889, 0.00116367
2, 23, 0, 5.316556, 6.5605, -53.80811, 2.473775, 3.7755, 0, 0
3, 231, 0, 0, 0, 12.41376, 0.2503608, -0.3435995, -0.8739761, 1116, 0, 0, 0
1, 0.6557769, 0.0365597, 0.02902389, -0.4345818, -0.283401, 0, 0, -0.8480631, 0, 0, 0.001104813, 0.001031589, 0.001329706
2, 23, 0, 5.330676, 6.663274, -53.79203, 2.483978, 3.798872, 0, 0
3, 232, 0, 0, 0, 12.41376, 0.2503608, -0.283401, -0.8480631, 1116, 0, 0, 0
1, 0.6695013, 0.03649467, 0.02911452, -0.4343738, -0.3349039, 0, 0, -0.8697593, 0, 0, 0.001001603, -0.000208878, 0.0007253645
2, 23, 0, 5.298643, 6.55233, -53.77521, 2.455759, 3.772356, 0, 0
3, 232, 0, 0, 0, 12.38402, 0.2530626, -0.3349039, -0.8697593, 1116, 0, 0, 0
1, 0.6695013, 0.03639531, 0.02920507, -0.4343507, -0.2860033, 0, 0, -0.8476293, 0, 0, 0.0006700448, 0.0007112578, 0.001419174
2, 23, 0, 5.370447, 6.608056, -53.8012, 2.504293, 3.776728, 0, 0
3, 233, 0, 0, 0, 12.38402, 0.2530626, -0.2860033, -0.8476293, 1116, 0, 0, 0
1, 0.6791911, 0.03632477, 0.02925818, -0.4342266, -0.3373859, 0, 0, -0.8698827, 0, 0, 0.0003739752, 0.0008314148, 0.0002606922
2, 23, 0, 5.287329, 6.604972, -53.81156, 2.440196, 3.771337, 0, 0
3, 233, 0, 0, 0, 12.33149, 0.2541893, -0.3373859, -0.8698827, 1117, 0, 0, 0
1, 0.6791911, 0.03630917, 0.02931191, -0.434106, -0.2895471, 0, 0, -0.8480594, 0, 0, 0.0007001502, 0.0006798742, 0.0007659051
2, 23, 0, 5.337416, 6.590041, -53.76823, 2.474524, 3.767301, 0, 0
3, 234, 0, 0, 0, 12.33149, 0.2541893, -0.2895471, -0.8480594, 1114, 0, 0, 0
1, 0.6812308, 0.0363427, 0.02938598, -0.4338694, -0.3411103, 0, 0, -0.8702143, 0, 0, 0.001392365, 0.0005255271, 0.0009965741
2, 23, 0, 5.369202, 6.583729, -53.67867, 2.494307, 3.768307, 0, 0
3, 234, 0, 0, 0, 12.43456, 0.2557299, -0.3411103, -0.8702143, 1115, 0, 0, 0
1, 0.6812308, 0.03641457, 0.02940073, -0.433637, -0.2878765, 0, 0, -0.8459308, 0, 0, 0.000711932, 0.000408479, 0.001285162
2, 23, 0, 5.394945, 6.5873, -53.70905, 2.512594, 3.773881, 0, 0
3, 235, 0, 0, 0, 12.43456, 0.2557299, -0.2878765, -0.8459308, 1113, 0, 0, 0
1, 0.6848971, 0.03648544, 0.02938058, -0.4334764, -0.3392938, 0, 0, -0.8679872, 0, 0, 0.001626043, 0.0007229095, 0.001479186
2, 23, 0, 5.406838, 6.625213, -53.6096, 2.522396, 3.786234, 0, 0
3, 235, 0, 0, 0, 12.40436, 0.2568544, -0.3392938, -0.8679872, 1113, 0, 0, 0
1, 0.6848971, 0.03646621, 0.02948069, -0.4333703, -0.2847098, 0, 0, -0.8439798, 0, 0, 0.0008342427, 0.0007021531, 0.00109615
2, 23, 0, 5.394216, 6.62009, -53.66534, 2.508048, 3.783904, 0, 0
3, 236, 0, 0, 0, 12.40436, 0.2568544, -0.2847098, -0.8439798, 1113, 0, 0, 0
1, 0.6921973, 0.03641325, 0.02958223, -0.4332053, -0.3359388, 0, 0, -0.8663638, 0, 0, 0.0008841434, 0.0006962806, 0.0001965218
2, 23, 0, 5.340524, 6.610087, -53.64054, 2.463273, 3.77832, 0, 0
3, 236, 0, 0, 0, 12.43275, 0.2577121, -0.3359388, -0.8663638, 1113, 0, 0, 0
1, 0.6921973, 0.03649441, 0.02955367, -0.4330917, -0.283621, 0, 0, -0.8435915, 0, 0, 0.0009942068, 5.73973E-07, 0.0004437171
2, 23, 0, 5.355158, 6.569039, -53.61687, 2.475521, 3.775635, 0, 0
3, 237, 0, 0, 0, 12.43275, 0.2577121, -0.283621, -0.8435915, 1114, 0, 0, 0
1, 0.6925521, 0.03656002, 0.02954333, -0.4328897, -0.3348658, 0, 0, -0.8653252, 0, 0, 0.0009895641, 0.0009413691, 0.0004723377
2, 23, 0, 5.355586, 6.656114, -53.59223, 2.476356, 3.797427, 0, 0
3, 237, 0, 0, 0, 12.40273, 0.2601524, -0.3348658, -0.8653252, 1113, 0, 0, 0
1, 0.6925521, 0.03661999, 0.0295031, -0.4327533, -0.2948176, 0, 0, -0.8483123, 0, 0, 0.001002956, -1.490045E-05, 0.0005294047
2, 23, 0, 5.35291, 6.590405, -53.57415, 2.476394, 3.788396, 0, 0
3, 238, 0, 0, 0, 12.40273, 0.2601524, -0.2948176, -0.8483123, 1113, 0, 0, 0
1, 0.6831678, 0.03668864, 0.02951061, -0.4326851, -0.3463566, 0, 0, -0.8707303, 0, 0, 0.0009951894, 0.0007054193, 0.0006924841
2, 23, 0, 5.367309, 6.660389, -53.56637, 2.48666, 3.806986, 0, 0
3, 238, 0, 0, 0, 12.39839, 0.26148, -0.3463566, -0.8707303, 1113, 0, 0, 0
1, 0.6831678, 0.03669342, 0.02956192, -0.4325568, -0.2918331, 0, 0, -0.8459445, 0, 0, 0.001528086, 0.0003964397, 0.0007446012
2, 23, 0, 5.380713, 6.636531, -53.5041, 2.493997, 3.802552, 0, 0
3, 239, 0, 0, 0, 12.39839, 0.26148, -0.2918331, -0.8459445, 1114, 0, 0, 0
1, 0.6761152, 0.03670549, 0.02962454, -0.4323833, -0.3432686, 0, 0, -0.8683026, 0, 0, 0.0006738947, 0.0006757881, 0.001079158
2, 23, 0, 5.418749, 6.66105, -53.5569, 2.518972, 3.808249, 0, 0
3, 239, 0, 0, 0, 12.47271, 0.2627206, -0.3432686, -0.8683026, 1114, 0, 0, 0
1, 0.6761152, 0.03670338, 0.02955048, -0.4322214, -0.2945119, 0, 0, -0.846823, 0, 0, 0.0002369443, 0.0008374985, 0.0007673533
2, 24, 0, 5.380475, 6.673609, -53.57484, 2.494393, 3.810616, 0, 0
3, 240, 0, 0, 0, 12.47271, 0.2627206, -0.2945119, -0.846823, 1114, 0, 0, 0
1, 0.6782783, 0.03660627, 0.02966641, -0.432131, -0.3458844, 0, 0, -0.8677521, 0, 0, 0.001422353, 3.229833E-05, 0.0006799174
2, 24, 0, 5.394348, 6.591713, -53.46049, 2.498837, 3.787715, 0, 0
3, 240, 0, 0, 0, 12.41286, 0.26348, -0.3458844, -0.8677521, 1115, 0, 0, 0
1, 0.6782783, 0.03654553, 0.02967117, -0.4320135, -0.2871353, 0, 0, -0.8431891, 0, 0, 0.0007527263, 1.497898E-05, 0.000485099
2, 24, 0, 5.379618, 6.579394, -53.50418, 2.487711, 3.781149, 0, 0
3, 241, 0, 0, 0, 12.41286, 0.26348, -0.2871353, -0.8431891, 1115, 0, 0, 0
1, 0.6875851, 0.03651249, 0.02972762, -0.4319057, -0.3383408, 0, 0, -0.8636402, 0, 0, 0.001564395, 0.001145572, 0.0008735066
2, 24, 0, 5.420852, 6.663893, -53.4202, 2.515361, 3.795745, 0, 0
3, 241, 0, 0, 0, 12.38845, 0.2658501, -0.3383408, -0.8636402, 1115, 0, 0, 0
1, 0.6875851, 0.03648479, 0.02977439, -0.4317078, -0.2890204, 0, 0, -0.8429919, 0, 0, 0.001175274, 0.0005541734, 0.00141268
2, 24, 0, 5.472405, 6.611595, -53.42952, 2.551121, 3.783446, 0, 0
3, 242, 0, 0, 0, 12.38845, 0.2658501, -0.2890204, -0.8429919, 1114, 0, 0, 0
1, 0.6939314, 0.03646652, 0.0297982, -0.4314951, -0.3403484, 0, 0, -0.8656527, 0, 0, 0.0006196359, 0.0007724256, 0.0006615673
2, 24, 0, 5.416602, 6.625767, -53.45148, 2.508681, 3.785032, 0, 0
3, 242, 0, 0, 0, 12.40924, 0.2670288, -0.3403484, -0.8656527, 1114, 0, 0, 0
1, 0.6939314, 0.03645407, 0.02982762, -0.43141, -0.2924754, 0, 0, -0.8434989, 0, 0, 0.0003139825, 0.0003567529, 0.001464077
2, 24, 0, 5.486097, 6.590272, -53.46752, 2.558574, 3.777115, 0, 0
3, 243, 0, 0, 0, 12.40924, 0.2670288, -0.2924754, -0.8434989, 1115, 0, 0, 0
1, 0.6952752, 0.03645095, 0.02989075, -0.4312633, -0.3436573, 0, 0, -0.8648322, 0, 0, 0.0009172853, 0.0008739459, 0.0009220528
2, 24, 0, 5.4541, 6.631086, -53.39685, 2.531759, 3.785031, 0, 0
3, 243, 0, 0, 0, 12.42371, 0.2681718, -0.3436573, -0.8648322, 1114, 0, 0, 0
1, 0.6952752, 0.03636784, 0.0299566, -0.4312347, -0.2885635, 0, 0, -0.8410115, 0, 0, -7.081133E-05, 0.0002705534, 0.0009756392
2, 24, 0, 5.470239, 6.567856, -53.47927, 2.540388, 3.766802, 0, 0
3, 244, 0, 0, 0, 12.42371, 0.2681718, -0.2885635, -0.8410115, 1114, 0, 0, 0
1, 0.702309, 0.03642185, 0.03000221, -0.4311631, -0.3396047, 0, 0, -0.8619319, 0, 0, 0.0008151437, 0.0006095691, 0.0007181528
2, 24, 0, 5.45785, 6.604699, -53.39331, 2.528944, 3.777795, 0, 0
3, 244, 0, 0, 0, 12.39568, 0.2696508, -0.3396047, -0.8619319, 1115, 0, 0, 0
1, 0.702309, 0.03647481, 0.03004696, -0.4311124, -0.2818148, 0, 0, -0.8366931, 0, 0, 0.001050552, 0.00112419, 0.001519638
2, 24, 0, 5.530025, 6.655402, -53.36655, 2.58005, 3.791479, 0, 0
3, 245, 0, 0, 0, 12.39568, 0.2696508, -0.2818148, -0.8366931, 1115, 0, 0, 0
1, 0.7118498, 0.03648982, 0.03005777, -0.4310149, -0.332636, 0, 0, -0.8567184, 0, 0, 0.0003831869, 0.001100538, 0.0009214788
2, 24, 0, 5.484118, 6.656211, -53.41251, 2.545575, 3.792656, 0, 0
3, 245, 0, 0, 0, 12.42552, 0.2703743, -0.332636, -0.8567184, 1115, 0, 0, 0
1, 0.7118498, 0.03656391, 0.03001457, -0.4308375, -0.2867913, 0, 0, -0.8368067, 0, 0, 0.0004241139, -0.0001069411, 0.0002175748
2, 24, 0, 5.420028, 6.572949, -53.38695, 2.500369, 3.781082, 0, 0
3, 246, 0, 0, 0, 12.42552, 0.2703743, -0.2867913, -0.8368067, 1115, 0, 0, 0
1, 0.7103432, 0.03649526, 0.03007315, -0.4307236, -0.3380753, 0, 0, -0.8590906, 0, 0, 0.000868929, 0.0004786758, 0.002190135
2, 24, 0, 5.588378, 6.607441, -53.33413, 2.62187, 3.783303, 0, 0
3, 246, 0, 0, 0, 12.39658, 0.2719017, -0.3380753, -0.8590906, 1114, 0, 0, 0
1, 0.7103432, 0.0363994, 0.03010583, -0.4305485, -0.2921686, 0, 0, -0.8379369, 0, 0, 0.001117864, 0.0006007678, 0.0002575518
2, 24, 0, 5.439654, 6.599954, -53.29076, 2.510301, 3.775322, 0, 0
3, 247, 0, 0, 0, 12.39658, 0.2719017, -0.2921686, -0.8379369, 1115, 0, 0, 0
1, 0.7003026, 0.03633486, 0.03012326, -0.4303757, -0.3429755, 0, 0, -0.8581651, 0, 0, 0.0008139475, -0.0003811226, 0.001164266
2, 24, 0, 5.515328, 6.509786, -53.29577, 2.565363, 3.752986, 0, 0
3, 247, 0, 0, 0, 12.40029, 0.2727008, -0.3429755, -0.8581651, 1115, 0, 0, 0
1, 0.7003026, 0.03623689, 0.03013712, -0.430288, -0.2912371, 0, 0, -0.8336751, 0, 0, 0.001450806, 0.0009140563, 0.0008952422
2, 24, 0, 5.4963, 6.595765, -53.2295, 2.550604, 3.763486, 0, 0
3, 248, 0, 0, 0, 12.40029, 0.2727008, -0.2912371, -0.8336751, 1114, 0, 0, 0
1, 0.692557, 0.03620044, 0.03018514, -0.4301304, -0.3418803, 0, 0, -0.8541707, 0, 0, 0.0008850173, -0.000162577, 0.0004898597
2, 24, 0, 5.472515, 6.503073, -53.25917, 2.530615, 3.742546, 0, 0
3, 248, 0, 0, 0, 12.41286, 0.2754058, -0.3418803, -0.8541707, 1115, 0, 0, 0
1, 0.692557, 0.03612628, 0.03022871, -0.4300631, -0.2919827, 0, 0, -0.8333387, 0, 0, 0.001350763, 0.0001052052, 0.001043722
2, 24, 0, 5.524666, 6.511146, -53.21031, 2.56698, 3.739132, 0, 0
3, 249, 0, 0, 0, 12.41286, 0.2754058, -0.2919827, -0.8333387, 1115, 0, 0, 0
1, 0.6864961, 0.03607574, 0.03029641, -0.429953, -0.3425933, 0, 0, -0.8547836, 0, 0, 0.001043454, 9.688977E-05, 0.0007436998
2, 24, 0, 5.51285, 6.501385, -53.22339, 2.554852, 3.733762, 0, 0
3, 249, 0, 0, 0, 12.39541, 0.2765852, -0.3425933, -0.8547836, 1115, 0, 0, 0
1, 0.6864961, 0.03613048, 0.03024082, -0.4297839, -0.2960577, 0, 0, -0.8331708, 0, 0, 0.0007378028, 0.0007844136, 0.001032375
2, 25, 0, 5.525938, 6.56624, -53.22902, 2.567313, 3.750393, 0, 0
3, 250, 0, 0, 0, 12.39541, 0.2765852, -0.2960577, -0.8331708, 1114, 0, 0, 0
1, 0.6777503, 0.03607739, 0.03025649, -0.4297059, -0.3466751, 0, 0, -0.8545901, 0, 0, 0.0005644363, 0.0009262421, 0.0007378524
2, 25, 0, 5.505197, 6.56803, -53.23443, 2.551197, 3.747156, 0, 0
3, 250, 0, 0, 0, 12.43094, 0.2778535, -0.3466751, -0.8545901, 1115, 0, 0, 0
1, 0.6777503, 0.03608349, 0.0302862, -0.4296712, -0.3000908, 0, 0, -0.8334607, 0, 0, 0.000693833, -0.0002233346, -4.714692E-05
2, 25, 0, 5.447744, 6.477161, -53.21886, 2.50724, 3.72946, 0, 0
3, 251, 0, 0, 0, 12.43094, 0.2778535, -0.3000908, -0.8334607, 1115, 0, 0, 0
1, 0.6688013, 0.03612569, 0.03030842, -0.4295452, -0.3507149, 0, 0, -0.854714, 0, 0, 0.0003537288, 0.0001367046, 0.0005404554
2, 25, 0, 5.498752, 6.513561, -53.23283, 2.54383, 3.739568, 0, 0
3, 251, 0, 0, 0, 12.41828, 0.2790376, -0.3507149, -0.854714, 1115, 0, 0, 0
1, 0.6688013, 0.03618402, 0.03030426, -0.4294025, -0.3012634, 0, 0, -0.8333341, 0, 0, 0.001008189, -0.0005735734, 0.0006639046
2, 25, 0, 5.507879, 6.467237, -53.1582, 2.550784, 3.734285, 0, 0
3, 252, 0, 0, 0, 12.41828, 0.2790376, -0.3012634, -0.8333341, 1115, 0, 0, 0
1, 0.6637886, 0.03621015, 0.03028442, -0.4293277, -0.3518727, 0, 0, -0.8539582, 0, 0, 0.0007513504, 3.378679E-05, 0.001185204
2, 25, 0, 5.546011, 6.52053, -53.17126, 2.579966, 3.746674, 0, 0
3, 252, 0, 0, 0, 12.40355, 0.2799501, -0.3518727, -0.8539582, 1115, 0, 0, 0
1, 0.6637886, 0.03620354, 0.0302959, -0.4291563, -0.3032657, 0, 0, -0.8324063, 0, 0, 0.0007650873, 0.0006664357, 0.001093653
2, 25, 0, 5.540754, 6.569952, -53.14882, 2.575504, 3.756073, 0, 0
3, 253, 0, 0, 0, 12.40355, 0.2799501, -0.3032657, -0.8324063, 1114, 0, 0, 0
1, 0.6656504, 0.03617167, 0.03035782, -0.429104, -0.3538781, 0, 0, -0.8531511, 0, 0, 0.00143809, -0.0003649128, 0.001236688
2, 25, 0, 5.563343, 6.481707, -53.08378, 2.589097, 3.736327, 0, 0
3, 253, 0, 0, 0, 12.4228, 0.2822803, -0.3538781, -0.8531511, 1114, 0, 0, 0
1, 0.6656504, 0.03613986, 0.03035467, -0.4290288, -0.2986909, 0, 0, -0.8299837, 0, 0, 0.001037333, -9.948642E-06, 0.0008696386
2, 25, 0, 5.533412, 6.504378, -53.10933, 2.567131, 3.738693, 0, 0
3, 254, 0, 0, 0, 12.4228, 0.2822803, -0.2986909, -0.8299837, 1115, 0, 0, 0
1, 0.6776957, 0.03604798, 0.03036142, -0.4288973, -0.3489473, 0, 0, -0.8492263, 0, 0, 0.00115497, 0.00112983, 0.001119549
2, 25, 0, 5.554619, 6.579023, -53.08278, 2.582469, 3.747348, 0, 0
3, 254, 0, 0, 0, 12.40029, 0.2832295, -0.3489473, -0.8492263, 1114, 0, 0, 0
1, 0.6776957, 0.03605426, 0.03037676, -0.4288056, -0.292979, 0, 0, -0.8239467, 0, 0, 0.001408922, 7.852961E-05, 0.0007118236
2, 25, 0, 5.524762, 6.496048, -53.04932, 2.55963, 3.731238, 0, 0
3, 255, 0, 0, 0, 12.40029, 0.2832295, -0.292979, -0.8239467, 1115, 0, 0, 0
1, 0.6987965, 0.03599449, 0.03043649, -0.4287193, -0.3430943, 0, 0, -0.844547, 0, 0, 0.0003494141, 0.0001464547, 0.0008208447
2, 25, 0, 5.544235, 6.490725, -53.13079, 2.571031, 3.726128, 0, 0
3, 255, 0, 0, 0, 12.43546, 0.2849227, -0.3430943, -0.844547, 1115, 0, 0, 0
1, 0.6987965, 0.0359024, 0.03040886, -0.4286015, -0.2847418, 0, 0, -0.8188466, 0, 0, 0.001463977, -2.319941E-05, 0.0005972134
2, 25, 0, 5.521371, 6.460577, -53.01922, 2.555515, 3.713891, 0, 0
3, 256, 0, 0, 0, 12.43546, 0.2849227, -0.2847418, -0.8188466, 1115, 0, 0, 0
1, 0.7168273, 0.03577767, 0.03046147, -0.428507, -0.3344392, 0, 0, -0.8394894, 0, 0, 1.355481E-05, 0.0004375475, 0.001366986
2, 25, 0, 5.592422, 6.474985, -53.13369, 2.605398, 3.708317, 0, 0
3, 256, 0, 0, 0, 12.4671, 0.2856406, -0.3344392, -0.8394894, 1114, 0, 0, 0
1, 0.7168273, 0.03591217, 0.03045506, -0.428426, -0.290184, 0, 0, -0.8201471, 0, 0, 0.0008646335, 0.0009455005, 0.001279096
2, 25, 0, 5.584239, 6.53983, -53.0496, 2.59967, 3.73034, 0, 0
3, 257, 0, 0, 0, 12.4671, 0.2856406, -0.290184, -0.8201471, 1115, 0, 0, 0
1, 0.7240106, 0.03589896, 0.03044269, -0.4283802, -0.3399027, 0, 0, -0.8394282, 0, 0, 0.0007603034, -0.0001204987, 0.0008151873
2, 25, 0, 5.544899, 6.452174, -53.05299, 2.57121, 3.711981, 0, 0
3, 257, 0, 0, 0, 12.40517, 0.2879582, -0.3399027, -0.8394282, 1115, 0, 0, 0
1, 0.7240106, 0.03585444, 0.03047438, -0.428232, -0.2823674, 0, 0, -0.8143263, 0, 0, 0.001180541, 0.0009662652, 0.0009528669
2, 25, 0, 5.561619, 6.5311, -52.99805, 2.581981, 3.724692, 0, 0
3, 258, 0, 0, 0, 12.40517, 0.2879582, -0.2823674, -0.8143263, 1114, 0, 0, 0
1, 0.7284237, 0.03593005, 0.03045288, -0.4279898, -0.3317836, 0, 0, -0.8347921, 0, 0, 0.0007971359, 0.0005164668, 0.001108328
2, 25, 0, 5.570184, 6.508726, -53.00138, 2.58939, 3.725352, 0, 0
3, 258, 0, 0, 0, 12.41919, 0.2892072, -0.3317836, -0.8347921, 1115, 0, 0, 0
1, 0.7284237, 0.03594345, 0.03046763, -0.4278577, -0.2801684, 0, 0, -0.8130295, 0, 0, 0.0004473645, 0.0006888343, 0.000878874
2, 25, 0, 5.554484, 6.524928, -53.01543, 2.577045, 3.729486, 0, 0
3, 259, 0, 0, 0, 12.41919, 0.2892072, -0.2801684, -0.8130295, 1115, 0, 0, 0
1, 0.7312902, 0.0359352, 0.03053587, -0.4278316, -0.3295329, 0, 0, -0.8323414, 0, 0, 0.00105033, 0.0005331066, 0.000725487
2, 25, 0, 5.554497, 6.510984, -52.95974, 2.573634, 3.726144, 0, 0
3, 259, 0, 0, 0, 12.44098, 0.2900186, -0.3295329, -0.8323414, 1115, 0, 0, 0
1, 0.7312902, 0.0358764, 0.03056992, -0.4277073, -0.2792793, 0, 0, -0.811981, 0, 0, 0.001081861, 6.183529E-05, 0.001142552
2, 26, 0, 5.593989, 6.462699, -52.94159, 2.60112, 3.712542, 0, 0
3, 260, 0, 0, 0, 12.44098, 0.2900186, -0.2792793, -0.811981, 1114, 0, 0, 0
1, 0.7286094, 0.03596446, 0.03051926, -0.4275979, -0.3285235, 0, 0, -0.8313638, 0, 0, 0.0005329998, -0.0002143778, 0.00155574
2, 26, 0, 5.617926, 6.456452, -52.97577, 2.621353, 3.71726, 0, 0
3, 260, 0, 0, 0, 12.44179, 0.2913122, -0.3285235, -0.8313638, 1115, 0, 0, 0
1, 0.7286094, 0.03589684, 0.03050532, -0.4274483, -0.2786007, 0, 0, -0.8099538, 0, 0, 0.0009660996, 0.001290781, 0.0009170222
2, 26, 0, 5.564319, 6.564693, -52.91954, 2.582427, 3.734252, 0, 0
3, 261, 0, 0, 0, 12.44179, 0.2913122, -0.2786007, -0.8099538, 1114, 0, 0, 0
1, 0.7231974, 0.03595825, 0.03041672, -0.4273327, -0.327905, 0, 0, -0.8321141, 0, 0, 0.001038048, 0.0008542022, 0.00123192
2, 26, 0, 5.573563, 6.540822, -52.89894, 2.5937, 3.733659, 0, 0
3, 261, 0, 0, 0, 12.41006, 0.2919285, -0.327905, -0.8321141, 1115, 0, 0, 0
1, 0.7231974, 0.0359834, 0.03046491, -0.4272904, -0.2773726, 0, 0, -0.8112091, 0, 0, 0.001050989, 0.0002713504, -0.0003654921
2, 26, 0, 5.454444, 6.49872, -52.89257, 2.503234, 3.726969, 0, 0
3, 262, 0, 0, 0, 12.41006, 0.2919285, -0.2773726, -0.8112091, 1115, 0, 0, 0
1, 0.7215818, 0.03609638, 0.0304708, -0.4272181, -0.326638, 0, 0, -0.830958, 0, 0, 0.0001371189, 0.0002925694, 0.0005464854
2, 26, 0, 5.528463, 6.520754, -52.96312, 2.557652, 3.739004, 0, 0
3, 262, 0, 0, 0, 12.41015, 0.294343, -0.326638, -0.830958, 1114, 0, 0, 0
1, 0.7215818, 0.03602625, 0.03050293, -0.4270838, -0.2700118, 0, 0, -0.8066159, 0, 0, 0.0005991564, 0.0008363902, 0.0009688399
2, 26, 0, 5.568035, 6.551636, -52.90627, 2.585293, 3.740409, 0, 0
3, 263, 0, 0, 0, 12.41015, 0.294343, -0.2700118, -0.8066159, 1114, 0, 0, 0
1, 0.7247686, 0.03599441, 0.030491, -0.4269886, -0.3189912, 0, 0, -0.8267106, 0, 0, 0.001015185, 0.0006427149, 0.0005224753
2, 26, 0, 5.530179, 6.530411, -52.85827, 2.557908, 3.734026, 0, 0
3, 263, 0, 0, 0, 12.41557, 0.295201, -0.3189912, -0.8267106, 1115, 0, 0, 0
1, 0.7247686, 0.03594647, 0.03045348, -0.4268931, -0.2715381, 0, 0, -0.8060914, 0, 0, 0.0008654704, 0.001438241, 0.0007152885
2, 26, 0, 5.53885, 6.585424, -52.85946, 2.566199, 3.741746, 0, 0
3, 264, 0, 0, 0, 12.41557, 0.295201, -0.2715381, -0.8060914, 1114, 0, 0, 0
1, 0.72334, 0.03588084, 0.03055026, -0.4268396, -0.3205786, 0, 0, -0.8258257, 0, 0, 0.0008870636, 0.001047191, 0.001160035
2, 26, 0, 5.59185, 6.542326, -52.85093, 2.600524, 3.72871, 0, 0
3, 264, 0, 0, 0, 12.44179, 0.29644, -0.3205786, -0.8258257, 1115, 0, 0, 0
1, 0.72334, 0.0358826, 0.03058073, -0.4267404, -0.2738146, 0, 0, -0.805789, 0, 0, 0.00100565, 0.000698201, 0.0005524168
2, 26, 0, 5.548724, 6.514723, -52.82832, 2.567119, 3.723326, 0, 0
3, 265, 0, 0, 0, 12.44179, 0.29644, -0.2738146, -0.805789, 1114, 0, 0, 0
1, 0.7216644, 0.03591784, 0.03061828, -0.4265713, -0.322612, 0, 0, -0.8252307, 0, 0, 0.0008220196, 0.0007693825, 0.000791604
2, 26, 0, 5.574619, 6.526762, -52.82333, 2.584378, 3.728107, 0, 0
3, 265, 0, 0, 0, 12.42823, 0.2972963, -0.322612, -0.8252307, 1115, 0, 0, 0
1, 0.7216644, 0.03589779, 0.03065445, -0.4265054, -0.2625012, 0, 0, -0.7984459, 0, 0, 0.001207218, 0.0006938262, 0.001275452
2, 26, 0, 5.619837, 6.517108, -52.78165, 2.61599, 3.724824, 0, 0
3, 266, 0, 0, 0, 12.42823, 0.2972963, -0.2625012, -0.7984459, 1114, 0, 0, 0
1, 0.7285796, 0.03586949, 0.03063809, -0.4264625, -0.3109429, 0, 0, -0.8192466, 0, 0, 0.000699255, 0.0006287227, 0.0002058519
2, 26, 0, 5.531325, 6.506807, -52.82052, 2.551382, 3.720858, 0, 0
3, 266, 0, 0, 0, 12.38302, 0.2979216, -0.3109429, -0.8192466, 1115, 0, 0, 0
1, 0.7285796, 0.0359253, 0.03063972, -0.4264414, -0.2620952, 0, 0, -0.7975584, 0, 0, 0.001537824, 0.0005261426, 0.0004614465
2, 26, 0, 5.552065, 6.508645, -52.74495, 2.566632, 3.725, 0, 0
3, 267, 0, 0, 0, 12.38302, 0.2979216, -0.2620952, -0.7975584, 1115, 0, 0, 0
1, 0.7380719, 0.03590506, 0.0306545, -0.4263332, -0.3105134, 0, 0, -0.8175671, 0, 0, 0.001449302, 0.0001846833, 0.0007111806
2, 26, 0, 5.574704, 6.477685, -52.73923, 2.582625, 3.71746, 0, 0
3, 267, 0, 0, 0, 12.43772, 0.3005843, -0.3105134, -0.8175671, 1115, 0, 0, 0
1, 0.7380719, 0.03586788, 0.0307094, -0.4262634, -0.2546536, 0, 0, -0.7933122, 0, 0, 0.001310524, 0.000762456, 0.001325975
2, 26, 0, 5.63377, 6.517216, -52.74265, 2.623535, 3.722816, 0, 0
3, 268, 0, 0, 0, 12.43772, 0.3005843, -0.2546536, -0.7933122, 1115, 0, 0, 0
1, 0.746708, 0.03583736, 0.03066768, -0.4261165, -0.3027408, 0, 0, -0.8127044, 0, 0, 0.001317957, 0.0008812425, 0.0005409243
2, 26, 0, 5.563456, 6.521225, -52.72378, 2.573651, 3.721553, 0, 0
3, 268, 0, 0, 0, 12.41648, 0.3016275, -0.3027408, -0.8127044, 1115, 0, 0, 0
1, 0.746708, 0.03569167, 0.03071169, -0.4260959, -0.2518044, 0, 0, -0.7912852, 0, 0, 0.0005360598, 0.001017369, 0.0007581856
2, 26, 0, 5.588759, 6.505891, -52.78925, 2.590148, 3.708636, 0, 0
3, 269, 0, 0, 0, 12.41648, 0.3016275, -0.2518044, -0.7912852, 1115, 0, 0, 0
1, 0.7574714, 0.03572027, 0.03068714, -0.4259443, -0.2999945, 0, 0, -0.8131804, 0, 0, 0.0006910236, 0.0003564323, 0.001486948
2, 26, 0, 5.642641, 6.458164, -52.75697, 2.631207, 3.701063, 0, 0
3, 269, 0, 0, 0, 12.39658, 0.3037387, -0.2999945, -0.8131804, 1114, 0, 0, 0
1, 0.7574714, 0.03570814, 0.03067026, -0.4259157, -0.2401965, 0, 0, -0.7870645, 0, 0, -0.0001616856, 0.001235877, 0.001258737
2, 27, 0, 5.621346, 6.526336, -52.82761, 2.616312, 3.713827, 0, 0
3, 270, 0, 0, 0, 12.39658, 0.3037387, -0.2401965, -0.7870645, 1115, 0, 0, 0
1, 0.7691798, 0.03577979, 0.03065363, -0.4258447, -0.2879226, 0, 0, -0.8051233, 0, 0, 0.001335998, 0.0007437401, 0.0009031609
2, 27, 0, 5.589906, 6.499862, -52.68851, 2.593906, 3.713402, 0, 0
3, 270, 0, 0, 0, 12.33845, 0.3045775, -0.2879226, -0.8051233, 1114, 0, 0, 0
1, 0.7691798, 0.03580336, 0.03067653, -0.4257299, -0.2393639, 0, 0, -0.7844879, 0, 0, 0.0005604631, 0.0006845103, 0.000722202
2, 27, 0, 5.579552, 6.499366, -52.74175, 2.585104, 3.714897, 0, 0
3, 271, 0, 0, 0, 12.33845, 0.3045775, -0.2393639, -0.7844879, 1114, 0, 0, 0
1, 0.7716739, 0.03581782, 0.03072489, -0.4257761, -0.2870813, 0, 0, -0.8051668, 0, 0, 0.001205528, 0.0006409977, 0.0004179833
2, 27, 0, 5.56392, 6.498488, -52.69136, 2.571125, 3.715697, 0, 0
3, 271, 0, 0, 0, 12.39839, 0.3062654, -0.2870813, -0.8051668, 1115, 0, 0, 0
1, 0.7716739, 0.0358173, 0.03076479, -0.425745, -0.2404575, 0, 0, -0.7853428, 0, 0, 0.0004265635, 5.867776E-05, 0.001344824
2, 27, 0, 5.645248, 6.451808, -52.75527, 2.629242, 3.706357, 0, 0
3, 272, 0, 0, 0, 12.39839, 0.3062654, -0.2404575, -0.7853428, 1114, 0, 0, 0
1, 0.7637894, 0.03576491, 0.0308196, -0.425698, -0.2882177, 0, 0, -0.8047346, 0, 0, 0.001192581, 0.0005884162, 0.001474373
2, 27, 0, 5.665477, 6.484758, -52.6828, 2.641449, 3.709372, 0, 0
3, 272, 0, 0, 0, 12.40562, 0.3072393, -0.2882177, -0.8047346, 1115, 0, 0, 0
1, 0.7637894, 0.03576234, 0.03081639, -0.4256787, -0.2374221, 0, 0, -0.7833744, 0, 0, 0.001053214, 0.0003999644, 0.0007444133
2, 27, 0, 5.606503, 6.469218, -52.69253, 2.598017, 3.706102, 0, 0
3, 273, 0, 0, 0, 12.40562, 0.3072393, -0.2374221, -0.7833744, 1114, 0, 0, 0
1, 0.7553939, 0.03585247, 0.03088647, -0.4255816, -0.2847394, 0, 0, -0.803207, 0, 0, 0.001332071, -0.0001064171, 0.0008469717
2, 27, 0, 5.627322, 6.444931, -52.65623, 2.609893, 3.707356, 0, 0
3, 273, 0, 0, 0, 12.41656, 0.3089475, -0.2847394, -0.803207, 1115, 0, 0, 0
1, 0.7553939, 0.03580756, 0.03091917, -0.4253785, -0.2352831, 0, 0, -0.7831084, 0, 0, 0.0006153043, 0.000904999, 0.001673224
2, 27, 0, 5.699307, 6.517761, -52.69341, 2.661466, 3.718827, 0, 0
3, 274, 0, 0, 0, 12.41656, 0.3089475, -0.2352831, -0.7831084, 1114, 0, 0, 0
1, 0.7536923, 0.03571435, 0.03096884, -0.4252861, -0.2828144, 0, 0, -0.8026186, 0, 0, 0.0009705134, 0.0006387953, 0.0009897309
2, 27, 0, 5.65357, 6.479687, -52.65104, 2.625167, 3.704929, 0, 0
3, 274, 0, 0, 0, 12.46078, 0.3105119, -0.2828144, -0.8026186, 1114, 0, 0, 0
1, 0.7536923, 0.03574225, 0.03096596, -0.4252147, -0.2258684, 0, 0, -0.7776926, 0, 0, 0.001021969, 0.0006017732, 0.0002015555
2, 27, 0, 5.589998, 6.481748, -52.63771, 2.578318, 3.707228, 0, 0
3, 275, 0, 0, 0, 12.46078, 0.3105119, -0.2258684, -0.7776926, 1115, 0, 0, 0
1, 0.7582349, 0.03572519, 0.03095852, -0.4250667, -0.2731188, 0, 0, -0.7982118, 0, 0, 0.0006475057, 0.0006331815, 7.453537E-05
2, 27, 0, 5.578496, 6.48119, -52.65194, 2.570189, 3.705963, 0, 0
3, 275, 0, 0, 0, 12.37217, 0.3112308, -0.2731188, -0.7982118, 1114, 0, 0, 0
1, 0.7582349, 0.03580457, 0.03082352, -0.4249091, -0.2263338, 0, 0, -0.7775182, 0, 0, 0.0002571635, 0.0004283495, 0.0003856197
2, 27, 0, 5.579082, 6.479091, -52.66635, 2.57739, 3.710927, 0, 0
3, 276, 0, 0, 0, 12.37217, 0.3112308, -0.2263338, -0.7775182, 1115, 0, 0, 0
1, 0.7538546, 0.03576858, 0.03086134, -0.4248607, -0.2734731, 0, 0, -0.7954465, 0, 0, 0.0004377376, 0.0004974642, 0.0007770865
2, 27, 0, 5.617208, 6.478142, -52.64464, 2.603676, 3.7083, 0, 0
3, 276, 0, 0, 0, 12.49061, 0.3126009, -0.2734731, -0.7954465, 1114, 0, 0, 0
1, 0.7538546, 0.03563802, 0.03088657, -0.424789, -0.2354227, 0, 0, -0.7797133, 0, 0, 0.0005396664, 0.0001052153, 0.001815693
2, 27, 0, 5.704838, 6.423261, -52.62688, 2.667187, 3.688526, 0, 0
3, 277, 0, 0, 0, 12.49061, 0.3126009, -0.2354227, -0.7797133, 1115, 0, 0, 0
1, 0.7403809, 0.03572526, 0.03090538, -0.4247566, -0.2828053, 0, 0, -0.8011076, 0, 0, 0.0004314982, 0.0006569044, 0.001185612
2, 27, 0, 5.657817, 6.483099, -52.63228, 2.631487, 3.706352, 0, 0
3, 277, 0, 0, 0, 12.42913, 0.3132773, -0.2828053, -0.8011076, 1114, 0, 0, 0
1, 0.7403809, 0.0356499, 0.03093542, -0.4247203, -0.2271397, 0, 0, -0.7782131, 0, 0, 0.0008345654, 0.0008686953, 0.001620494
2, 27, 0, 5.698015, 6.486478, -52.5927, 2.659696, 3.701923, 0, 0
3, 278, 0, 0, 0, 12.42913, 0.3132773, -0.2271397, -0.7782131, 1115, 0, 0, 0
1, 0.7360859, 0.03568656, 0.03096664, -0.4246385, -0.2743891, 0, 0, -0.7978994, 0, 0, 0.0006078234, 0.0005768465, 0.001696115
2, 27, 0, 5.709684, 6.469728, -52.60229, 2.666757, 3.701064, 0, 0
3, 278, 0, 0, 0, 12.38564, 0.3154452, -0.2743891, -0.7978994, 1115, 0, 0, 0
1, 0.7360859, 0.03562597, 0.0310191, -0.424542, -0.2248824, 0, 0, -0.7761838, 0, 0, 0.0005098545, 0.0004701227, 0.000947646
2, 27, 0, 5.659249, 6.450285, -52.59885, 2.626846, 3.693086, 0, 0
3, 279, 0, 0, 0, 12.38564, 0.3154452, -0.2248824, -0.7761838, 1114, 0, 0, 0
1, 0.7407385, 0.03556211, 0.03100045, -0.4244652, -0.2719696, 0, 0, -0.7952412, 0, 0, 0.0009056985, 0.0007843144, 0.0007528143
2, 27, 0, 5.640306, 6.463924, -52.55489, 2.613777, 3.691482, 0, 0
3, 279, 0, 0, 0, 12.51955, 0.3164604, -0.2719696, -0.7952412, 1115, 0, 0, 0
1, 0.7407385, 0.03551832, 0.0309783, -0.4243138, -0.2222589, 0, 0, -0.7736234, 0, 0, 0.001850183, 0.001031543, 0.0009500388
2, 28, 0, 5.652097, 6.475821, -52.45395, 2.623605, 3.690891, 0, 0
3, 280, 0, 0, 0, 12.51955, 0.3164604, -0.2222589, -0.7736234, 1114, 0, 0, 0
1, 0.7475576, 0.03548221, 0.03103519, -0.4242778, -0.2692718, 0, 0, -0.7940183, 0, 0, 0.0009837199, 0.0009696518, 0.00102524
2, 28, 0, 5.668353, 6.464369, -52.52486, 2.632769, 3.686161, 0, 0
3, 280, 0, 0, 0, 12.4125, 0.3176793, -0.2692718, -0.7940183, 1115, 0, 0, 0
1, 0.7475576, 0.03551053, 0.03101295, -0.4241244, -0.2173363, 0, 0, -0.7721747, 0, 0, 0.0007939799, 0.0001756154, 0.00111601
2, 28, 0, 5.671612, 6.405943, -52.52235, 2.636292, 3.676438, 0, 0
3, 281, 0, 0, 0, 12.4125, 0.3176793, -0.2173363, -0.7721747, 1114, 0, 0, 0
1, 0.75632, 0.0354799, 0.03107144, -0.4240894, -0.2641544, 0, 0, -0.791191, 0, 0, 0.0006974976, 0.001200818, 0.0009550402
2, 28, 0, 5.669263, 6.482447, -52.5264, 2.631624, 3.689604, 0, 0
3, 281, 0, 0, 0, 12.35047, 0.3186074, -0.2641544, -0.791191, 1115, 0, 0, 0
1, 0.75632, 0.03540204, 0.03109313, -0.4241022, -0.2140164, 0, 0, -0.769021, 0, 0, 0.00115562, 0.0001620236, 0.001511775
2, 28, 0, 5.717706, 6.385329, -52.48813, 2.666346, 3.664982, 0, 0
3, 282, 0, 0, 0, 12.35047, 0.3186074, -0.2140164, -0.769021, 1114, 0, 0, 0
1, 0.7658051, 0.03542774, 0.03114109, -0.4240487, -0.2608748, 0, 0, -0.7897072, 0, 0, 0.0009909394, 0.0001012806, 0.001157749
2, 28, 0, 5.698017, 6.385096, -52.49582, 2.649388, 3.666672, 0, 0
3, 282, 0, 0, 0, 12.40291, 0.3192866, -0.2608748, -0.7897072, 1114, 0, 0, 0
1, 0.7658051, 0.03535899, 0.03113335, -0.4240744, -0.2082795, 0, 0, -0.7662812, 0, 0, 0.0009296965, 0.0008286611, 0.0005133533
2, 28, 0, 5.645072, 6.430911, -52.50435, 2.610639, 3.671149, 0, 0
3, 283, 0, 0, 0, 12.40291, 0.3192866, -0.2082795, -0.7662812, 1115, 0, 0, 0
1, 0.7731479, 0.0353225, 0.03113506, -0.4240101, -0.2547625, 0, 0, -0.7846628, 0, 0, 9.477467E-05, 0.0007224062, 0.001111225
2, 28, 0, 5.693209, 6.415843, -52.56901, 2.646137, 3.665677, 0, 0
3, 283, 0, 0, 0, 12.39297, 0.3214156, -0.2547625, -0.7846628, 1114, 0, 0, 0
1, 0.7731479, 0.03519764, 0.03111074, -0.4238607, -0.2079193, 0, 0, -0.7669096, 0, 0, 0.0005855866, 0.0007496447, 0.0008912273
2, 28, 0, 5.67123, 6.395546, -52.50779, 2.631109, 3.653186, 0, 0
3, 284, 0, 0, 0, 12.39297, 0.3214156, -0.2079193, -0.7669096, 1115, 0, 0, 0
1, 0.7720661, 0.0351357, 0.03112943, -0.4238281, -0.2544046, 0, 0, -0.7852364, 0, 0, 0.001276175, -0.0003367182, 0.0002859176
2, 28, 0, 5.626171, 6.297489, -52.44366, 2.596863, 3.629455, 0, 0
3, 284, 0, 0, 0, 12.3993, 0.322177, -0.2544046, -0.7852364, 1115, 0, 0, 0
1, 0.7720661, 0.03514232, 0.03110256, -0.4237519, -0.2103149, 0, 0, -0.7653373, 0, 0, 0.0005379588, 0.0001550515, 0.001387281
2, 28, 0, 5.709443, 6.338022, -52.49843, 2.659766, 3.637981, 0, 0
3, 285, 0, 0, 0, 12.3993, 0.322177, -0.2103149, -0.7653373, 1115, 0, 0, 0
1, 0.7669195, 0.03512648, 0.03113214, -0.4236202, -0.2568054, 0, 0, -0.7863918, 0, 0, 0.0008247871, 0.0001892309, 0.0002366344
2, 28, 0, 5.622716, 6.337906, -52.45715, 2.594173, 3.636884, 0, 0
3, 285, 0, 0, 0, 12.42145, 0.3234321, -0.2568054, -0.7863918, 1114, 0, 0, 0
1, 0.7669195, 0.03500043, 0.03110608, -0.4235958, -0.2021843, 0, 0, -0.7639833, 0, 0, 0.0007096779, -0.0002361004, 0.0008786143
2, 28, 0, 5.669384, 6.281189, -52.46415, 2.629977, 3.617055, 0, 0
3, 286, 0, 0, 0, 12.42145, 0.3234321, -0.2021843, -0.7639833, 1115, 0, 0, 0
1, 0.7623586, 0.03500256, 0.03106179, -0.423509, -0.2485613, 0, 0, -0.7829142, 0, 0, 0.0009220355, 0.0004756046, 0.001158441
2, 28, 0, 5.683798, 6.338508, -52.43491, 2.642852, 3.628623, 0, 0
3, 286, 0, 0, 0, 12.31883, 0.3242472, -0.2485613, -0.7829142, 1115, 0, 0, 0
1, 0.7623586, 0.03489738, 0.03112426, -0.4234646, -0.2103895, 0, 0, -0.7662749, 0, 0, 0.001135512, -0.0002075575, 0.0009034263
2, 28, 0, 5.67464, 6.264923, -52.41082, 2.632952, 3.606839, 0, 0
3, 287, 0, 0, 0, 12.31883, 0.3242472, -0.2103895, -0.7662749, 1114, 0, 0, 0
1, 0.7585559, 0.0348778, 0.03108365, -0.4234087, -0.2568966, 0, 0, -0.785867, 0, 0, 0.0003623799, 0.0005166564, 0.0007714325
2, 28, 0, 5.656771, 6.319336, -52.47115, 2.621778, 3.61636, 0, 0
3, 287, 0, 0, 0, 12.41412, 0.3261978, -0.2568966, -0.785867, 1115, 0, 0, 0
1, 0.7585559, 0.03491056, 0.03107359, -0.4233948, -0.1985168, 0, 0, -0.7607924, 0, 0, 0.001088315, 0.0007879812, 0.001242031
2, 28, 0, 5.692609, 6.34694, -52.40627, 2.648774, 3.624077, 0, 0
3, 288, 0, 0, 0, 12.41412, 0.3261978, -0.1985168, -0.7607924, 1115, 0, 0, 0
1, 0.7644879, 0.03490361, 0.03109719, -0.4233559, -0.2447103, 0, 0, -0.7801561, 0, 0, 0.001438705, 0.0007553762, 0.001079282
2, 28, 0, 5.683836, 6.34308, -52.37096, 2.641107, 3.622836, 0, 0
3, 288, 0, 0, 0, 12.42732, 0.3274852, -0.2447103, -0.7801561, 1114, 0, 0, 0
1, 0.7644879, 0.03491692, 0.03105904, -0.4233501, -0.1956468, 0, 0, -0.7599099, 0, 0, 0.0006926028, 0.0001319054, 0.0004885955
2, 28, 0, 5.629715, 6.295598, -52.43515, 2.603011, 3.614279, 0, 0
3, 289, 0, 0, 0, 12.42732, 0.3274852, -0.1956468, -0.7599099, 1115, 0, 0, 0
1, 0.778759, 0.03492913, 0.03113103, -0.4233487, -0.241764, 0, 0, -0.7777904, 0, 0, 0.0004904759, 0.000906449, 0.001274441
2, 28, 0, 5.705541, 6.359759, -52.45257, 2.655454, 3.627883, 0, 0
3, 289, 0, 0, 0, 12.48248, 0.3281522, -0.241764, -0.7777904, 1115, 0, 0, 0
1, 0.778759, 0.03488725, 0.03117197, -0.423313, -0.1872826, 0, 0, -0.7554646, 0, 0, 0.0003021412, 0.0007052599, 0.001052259
2, 29, 0, 5.695135, 6.336127, -52.46452, 2.64571, 3.620338, 0, 0
3, 290, 0, 0, 0, 12.48248, 0.3281522, -0.1872826, -0.7554646, 1115, 0, 0, 0
1, 0.7917424, 0.03481679, 0.03122157, -0.4232734, -0.233193, 0, 0, -0.7754994, 0, 0, 0.0009487231, 0.0006006707, 0.001137632
2, 29, 0, 5.710894, 6.315075, -52.40336, 2.654873, 3.611371, 0, 0
3, 290, 0, 0, 0, 12.40599, 0.3296932, -0.233193, -0.7754994, 1115, 0, 0, 0
1, 0.7917424, 0.03483787, 0.03120378, -0.4232017, -0.1870008, 0, 0, -0.7558177, 0, 0, 0.000772296, 0.0007268123, 0.0009659611
2, 29, 0, 5.693958, 6.328961, -52.40982, 2.643246, 3.615566, 0, 0
3, 291, 0, 0, 0, 12.40599, 0.3296932, -0.1870008, -0.7558177, 1115, 0, 0, 0
1, 0.7932946, 0.03483273, 0.03115692, -0.4231618, -0.2328617, 0, 0, -0.7751248, 0, 0, 0.0007813179, 0.001177763, 0.001358818
2, 29, 0, 5.71695, 6.364112, -52.40409, 2.662591, 3.622225, 0, 0
3, 291, 0, 0, 0, 12.42823, 0.3305674, -0.2328617, -0.7751248, 1114, 0, 0, 0
1, 0.7932946, 0.03482093, 0.03122514, -0.4231345, -0.1921215, 0, 0, -0.7582611, 0, 0, 0.001445231, -6.250358E-05, 0.00113719
2, 29, 0, 5.7115, 6.262766, -52.34295, 2.655143, 3.601229, 0, 0
3, 292, 0, 0, 0, 12.42823, 0.3305674, -0.1921215, -0.7582611, 1115, 0, 0, 0
1, 0.7792826, 0.03481311, 0.03126176, -0.4230776, -0.2381677, 0, 0, -0.7766504, 0, 0, 0.0004587899, 0.0009187981, 0.0008487865
2, 29, 0, 5.695021, 6.339863, -52.4217, 2.641125, 3.616058, 0, 0
3, 292, 0, 0, 0, 12.37913, 0.3329626, -0.2381677, -0.7766504, 1115, 0, 0, 0
1, 0.7792826, 0.03473853, 0.03130961, -0.4230367, -0.1959482, 0, 0, -0.7586117, 0, 0, 0.001295724, 0.0008888941, 0.001091423
2, 29, 0, 5.723043, 6.324048, -52.34382, 2.659442, 3.607857, 0, 0
3, 293, 0, 0, 0, 12.37913, 0.3329626, -0.1959482, -0.7586117, 1114, 0, 0, 0
1, 0.7679847, 0.03482242, 0.03131236, -0.4230121, -0.2419724, 0, 0, -0.7760335, 0, 0, 0.0005239405, 4.882312E-06, 0.001095722
2, 29, 0, 5.723882, 6.268425, -52.40792, 2.659924, 3.60245, 0, 0
3, 293, 0, 0, 0, 12.42461, 0.3337129, -0.2419724, -0.7760335, 1115, 0, 0, 0
1, 0.7679847, 0.03486578, 0.03133877, -0.4231008, -0.1825748, 0, 0, -0.7508801, 0, 0, 0.002071818, -2.149389E-05, 0.001296946
2, 29, 0, 5.744733, 6.27412, -52.28425, 2.674014, 3.606517, 0, 0
3, 294, 0, 0, 0, 12.42461, 0.3337129, -0.1825748, -0.7508801, 1115, 0, 0, 0
1, 0.7742888, 0.03483597, 0.03129986, -0.4230269, -0.2280503, 0, 0, -0.7697814, 0, 0, 0.001235137, -7.641704E-05, 0.0008656512
2, 29, 0, 5.703227, 6.264361, -52.34789, 2.645281, 3.602559, 0, 0
